yaw_hand,pitch_hand,roll_hand,acc_X_hand,acc_Y_hand,acc_Z_hand,Movement
92.75,-64.83,-10.33,-6,79,148,R
92.75,-64.83,-10.33,-19,71,154,R
92.77,-64.84,-10.34,-29,64,135,R
92.78,-64.84,-10.34,-34,59,127,R
92.79,-64.84,-10.36,-43,60,126,R
92.81,-64.84,-10.37,-41,63,134,R
92.82,-64.85,-10.38,-23,51,145,R
92.83,-64.85,-10.4,-10,48,146,R
93.06,-65.01,-10.52,-57,-31,119,R
93.09,-64.98,-10.58,20,61,171,R
94.14,-65.5,-10.32,135,87,131,R
94.16,-65.56,-10.21,149,17,55,R
94.11,-65.58,-9.92,118,-41,58,R
94.08,-65.6,-9.74,71,-32,109,R
102.82,-63.03,-9.67,-32,-243,-153,R
103.28,-63.25,-9.69,152,-149,280,R
103.72,-63.43,-9.69,-311,-96,51,R
104.16,-63.5,-9.71,-157,-97,-119,R
105.18,-63.61,-9.55,-19,-137,-122,R
105.45,-63.74,-9.47,-6,-131,-82,R
113.42,-67.64,-7.21,168,104,231,R
115.37,-66.95,-7.62,198,58,-218,R
118.25,-65.52,-9.03,130,-113,-113,R
119.32,-72.76,0.71,-269,148,212,R
119.6,-73.0,0.33,-65,-81,318,R
119.93,-73.17,-0.1,126,-294,-211,R
120.72,-73.19,-1.5,-181,-287,223,R
120.9,-73.05,-1.99,-62,194,-294,R
111.14,-72.23,-7.67,181,-12,-17,R
110.29,-72.51,-8.09,0,-65,258,R
110.38,-71.11,-9.12,-29,-2,-159,R
100.83,-75.1,-9.03,-153,290,307,R
100.07,-75.86,-8.56,-134,-257,314,R
99.26,-76.42,-7.99,-143,-29,-149,R
95.47,-77.41,-5.16,245,106,-37,R
97.4,-75.67,-8.91,-272,304,-65,R
97.42,-76.27,-8.71,-285,-324,225,R
97.43,-76.88,-8.49,308,289,-222,R
97.36,-77.51,-8.22,316,213,-130,R
96.69,-80.28,-6.96,-208,64,213,R
96.37,-81.22,-6.48,-322,-76,-48,R
90.91,-69.11,-7.22,-242,48,-164,R
90.63,-67.59,-8.17,-242,52,-80,R
90.22,-63.5,-11.75,190,-96,237,R
90.29,-63.46,-12.52,50,-29,-164,R
90.35,-63.53,-12.68,298,-282,292,R
67.14,-56.12,21.7,139,35,150,R
51.77,-44.48,38.89,218,200,184,R
48.17,-41.22,42.87,-112,-224,-18,R
44.39,-37.83,46.92,-208,-245,223,R
40.31,-34.18,51.09,-34,197,-228,R
-95.64,49.83,-2.99,305,216,-88,R
-98.98,49.96,-6.35,-262,94,50,R
-102.79,49.44,-9.53,319,46,30,R
-104.33,49.48,-10.43,198,-32,-255,R
-106.04,49.4,-11.57,-319,-262,197,R
-107.92,49.18,-12.9,218,226,-41,R
-153.55,21.17,22.59,-324,-72,-186,R
-151.43,21.46,16.91,-116,26,-110,R
-148.75,21.68,14.05,285,107,179,R
-145.45,22.24,11.37,187,-187,-41,R
-96.59,52.97,-6.54,-19,-238,133,R
-96.5,53.07,-6.76,-67,-160,317,R
-96.65,53.12,-7.17,-36,-232,207,R
-97.18,53.05,-7.85,82,270,168,R
-97.99,52.94,-8.73,322,185,225,R
-98.9,52.84,-9.69,200,140,-80,R
-165.67,26.77,4.82,-170,-209,-208,R
-168.25,28.57,8.26,151,322,152,R
-169.99,32.11,17.1,-120,1,-192,R
-167.85,31.65,18.74,-48,75,-231,R
-164.64,30.55,19.08,-193,263,-105,R
-161.2,29.55,18.21,-33,157,255,R
-101.17,52.14,-3.93,63,-200,-192,R
-115.88,45.52,-17.56,17,59,283,R
-120.39,42.62,-21.07,234,230,124,R
-123.89,40.58,-23.04,234,-314,3,R
-146.39,24.22,20.25,101,-309,-271,R
-144.34,24.2,17.55,85,-253,86,R
-142.94,24.27,14.44,159,319,-81,R
-129.2,28.04,-0.74,319,53,90,R
-126.44,30.42,-2.99,-137,23,319,R
-128.61,37.78,-28.11,49,187,60,R
-132.11,36.33,-25.49,178,-32,-248,R
-133.51,35.89,-23.32,-241,76,-316,R
-74.57,-76.17,-12.86,-174,189,-88,L
-74.56,-76.16,-12.86,-184,204,-18,L
-74.56,-76.17,-12.86,-212,175,44,L
-74.55,-76.18,-12.84,-263,91,58,L
-74.56,-76.19,-12.82,-292,39,47,L
-74.55,-76.2,-12.79,-304,26,22,L
-74.37,-76.56,-12.06,-156,-312,119,L
-66.29,-72.92,-15.24,99,-108,-231,L
-64.5,-72.68,-15.55,48,266,-91,L
36.69,-81.45,-8.16,-110,-18,-43,L
66.2,-81.68,-7.95,-18,320,75,L
72.55,-81.88,-7.75,117,148,-326,L
99.98,-80.96,-9.02,239,-281,-308,L
101.1,-80.67,-9.28,301,264,-214,L
81.67,-84.91,-4.38,-93,-296,-283,L
79.28,-84.78,-4.42,-244,-248,-6,L
-77.59,-83.04,-6.17,-247,-269,319,L
-79.09,-83.33,-6.08,243,-174,60,L
-91.62,-82.19,-1.16,-221,281,123,L
-91.85,-82.28,-0.84,-207,257,135,L
-92.52,-82.25,-1.25,326,273,87,L
90.79,73.03,2.78,-82,0,287,L
82.78,67.2,2.69,-52,183,-283,L
80.37,67.27,7.84,-228,-187,34,L
152.66,49.66,32.76,-33,-106,253,L
145.01,53.77,30.39,-301,228,321,L
100.22,55.91,25.67,-7,214,311,L
101.02,56.19,25.1,-117,57,-314,L
111.18,72.41,15.72,-87,-100,-175,L
107.48,74.9,13.44,158,-249,-159,L
85.29,62.16,17.67,-162,110,-271,L
87.17,63.09,16.44,-31,-223,-144,L
89.01,64.23,15.11,-246,309,-7,L
91.05,65.05,14.1,233,84,-316,L
93.77,65.28,13.93,-167,273,-276,L
96.85,65.48,14.16,104,-279,204,L
100.03,65.43,14.79,-41,-64,248,L
103.45,64.84,15.99,-45,-322,20,L
107.03,63.61,17.52,174,81,-86,L
98.33,76.49,11.54,-51,248,-14,L
94.7,76.8,9.74,272,149,5,L
90.85,76.49,8.25,134,-40,49,L
86.73,75.88,7.02,-68,213,-3,L
82.7,75.31,6.12,270,189,190,L
79.51,74.97,5.85,-7,-303,9,L
77.21,74.64,6.27,-284,171,210,L
116.64,60.67,25.53,-22,-32,-297,L
123.29,55.3,28.53,193,214,0,L
126.54,52.89,29.5,283,166,161,L
129.13,51.06,29.9,213,161,56,L
131.28,49.79,29.79,-81,-176,63,L
75.74,77.37,10.32,263,22,272,L
77.21,75.09,13.4,-16,308,191,L
83.02,72.13,17.1,-114,288,-289,L
85.88,69.62,19.92,327,-233,-244,L
77.96,67.74,21.74,-269,85,-206,L
60.78,65.74,23.35,-232,-2989,159,L
62.47,58.19,28.99,-94,231,-99,L
124.52,54.46,28.49,322,238,276,L
123.53,55.69,28.03,-109,139,293,L
122.87,56.52,27.74,-224,-297,-87,L
122.17,57.36,27.45,-150,-195,-40,L
121.14,58.5,27.03,-266,169,228,L
-5.74,68.95,18.24,56,-23,-322,L
2.22,66.78,19.84,285,-2,-51,L
12.18,65.2,20.82,-144,-49,-156,L
25.32,64.04,21.36,67,-37,171,L
40.15,63.29,21.57,116,-201,-71,L
73.17,64.74,19.63,-9,-285,-10,L
79.59,66.17,18.48,133,-263,-49,L
122.03,56.33,29.62,301,120,-56,L
120.36,57.96,29.04,-191,-229,176,L
118.52,59.88,28.15,253,145,-52,L
112.97,66.19,23.61,283,-160,-2,L
111.54,67.7,22.2,309,305,105,L
110.56,68.56,21.34,-32,24,143,L
67.75,59.88,25.07,-282,-234,229,L
78.92,60.23,24.66,41,-192,143,L
86.52,60.88,24.11,-318,311,-204,L
112.3,58.85,27.03,66,231,-142,L
97.91,72.14,15.92,229,-280,-104,L
91.35,74.41,12.65,222,-140,-48,L
45.77,75.44,2.71,260,180,249,L
33.47,74.48,3.21,88,42,308,L
20.29,74.1,4.57,39,-167,-5,L
3.08,74.09,5.98,-267,40,327,L
122.09,53.06,31.21,203,265,-190,L
127.29,47.08,31.77,149,-111,37,L
128.05,46.07,31.87,50,276,-203,L
128.65,45.29,32.05,-200,-158,-248,L
129.38,44.64,32.46,14,150,282,L
129.94,44.39,33.16,-57,-305,102,L
-47.48,77.13,10.27,100,239,-129,L
-52.45,74.96,13.2,-311,-293,71,L
-33.28,65.5,21.4,276,2,-28,L
-18.62,60.44,24.92,-175,-16,-137,L
34.61,52.33,29.1,311,173,147,L
127.44,47.16,34.82,-198,215,-80,L
127.09,47.46,34.63,247,-137,217,L
127.04,47.53,34.49,-320,91,-108,L
123.05,52.42,33.06,-215,-39,296,L
122.15,53.54,32.75,294,18,-81,L
-57.38,70.06,19.06,35,-141,-21,L
-52.64,67.82,21.01,-163,-1,-255,L
-47.78,66.08,22.34,-225,322,172,L
-43.31,64.9,23.14,115,-147,62,L
-38.47,64.09,23.65,-222,-299,-118,L
-31.4,63.52,23.95,-308,-2,-300,L
-19.72,63.2,24.01,-118,-39,4,L
-1.02,63.22,23.75,-281,82,62,L
120.92,51.49,34.26,191,0,62,L
120.22,53.36,34.21,98,198,-321,L
119.55,54.87,33.56,208,-183,24,L
119.08,56.42,32.69,-111,-278,-203,L
118.9,57.82,31.76,-161,201,-206,L
84.09,65.91,22.36,-261,-42,215,L
92.55,65.99,22.39,-86,-31,110,L
97.92,65.76,22.69,299,210,-295,L
101.9,65.85,22.78,47,-313,-8,L
104.79,65.82,23.0,-123,-315,0,L
106.87,65.22,23.66,-81,-149,-147,L
116.76,61.43,28.46,90,32,32,L
112.65,69.71,20.19,175,-237,51,L
110.53,71.97,17.93,-10,145,-309,L
107.66,74.63,15.3,297,53,-230,L
103.7,77.55,12.43,11,1,98,L
98.13,80.54,9.44,-59,-197,17,L
96.05,65.96,21.79,189,284,138,L
100.04,64.92,22.85,-170,111,-189,L
107.52,59.3,26.93,79,-67,-3,L
109.35,56.89,28.32,-209,-121,102,L
110.93,54.75,29.54,-282,241,-113,L
112.1,52.99,30.39,-297,-177,-288,L
84.92,81.5,8.35,159,219,82,L
-45.19,83.29,5.93,215,-96,-235,L
-61.31,83.36,5.48,181,-115,-161,L
-65.96,83.0,5.36,14,53,64,L
-68.16,82.39,5.46,84,304,85,L
-90.59,-78.72,3.89,15,71,226,R
-90.59,-78.71,3.9,21,47,229,R
-90.59,-78.71,3.91,26,42,244,R
-90.57,-78.74,3.93,-2,138,291,R
-90.23,-78.74,4.13,131,243,174,R
-90.22,-78.7,4.16,141,283,127,R
-90.18,-78.23,4.35,-306,-217,-62,R
-90.19,-77.94,4.47,-304,-135,-70,R
-71.13,-73.87,-13.52,70,-183,317,R
-70.75,-73.58,-14.06,-105,31,162,R
-70.41,-73.35,-14.49,-266,200,-5,R
-67.81,-72.0,-16.2,323,-318,-327,R
46.81,-56.28,-24.39,-247,67,-20,R
50.4,-55.82,-24.12,128,-40,294,R
53.45,-55.28,-23.95,-153,-66,-101,R
61.08,-53.81,-24.16,-81,-99,174,R
63.23,-53.58,-24.35,308,167,-194,R
74.48,-54.09,-27.31,-165,283,166,R
35.14,-58.44,-21.76,66,76,121,R
-35.92,-66.7,-16.19,110,-294,-180,R
-37.78,-67.03,-16.28,-155,-47,-54,R
-44.22,-67.73,-16.13,35,149,-16,R
-47.04,-68.07,-15.83,225,256,-84,R
-52.51,-72.21,-9.12,259,-250,-150,R
-44.77,-69.67,-10.93,4,-101,70,R
-69.45,-72.46,-17.51,-304,-205,21,R
-66.88,-72.01,-17.92,209,321,56,R
-64.19,-71.78,-18.05,73,319,95,R
-63.36,-71.81,-17.98,-121,-110,-26,R
-49.19,-72.72,-4.31,-306,-168,222,R
-57.0,32.52,46.47,-55,-197,-24,R
-111.0,51.76,-22.38,231,-112,-84,R
-204.36,99.64,-136953.96,-110,51,-2,R
-108.37,48.91,-19.87,197,-57,143,R
-107.67,48.76,-19.18,-182,-24,238,R
-114.52,43.57,-3.34,-242,223,-103,R
-112.5,45.71,0.54,314,28,305,R
29.2,-105.0,-29752953.96,-97,43,1,R
-94.75,40.28,16.54,68,94,278,R
-94.35,38.3,17.61,-173,-6,-155,R
-94.77,37.47,18.18,39,196,327,R
-95.43,37.62,18.43,-280,-46,78,R
-113.99,38.36,-28.81,-89,-96,-162,R
-111.94,41.64,-29.12,-320,-313,-5,R
-111.97,41.22,-28.89,190,-67,63,R
-112.2,40.85,-28.56,-211,-35,-303,R
-112.7,40.79,-28.29,-178,-253,-208,R
-113.45,40.67,-28.21,-189,166,-229,R
-114.6,39.93,-28.53,190,254,275,R
-95.25,37.44,17.5,73,-78,-38,R
-96.09,36.12,16.32,-260,-212,208,R
-97.01,34.98,14.93,-311,-301,206,R
-97.81,34.07,13.67,-302,-325,-108,R
-99.42,32.83,10.44,23,-38,-232,R
-100.07,32.96,8.69,-255,-196,111,R
-100.83,33.16,6.53,180,258,209,R
-123.03,25.73,-44.84,-45,-140,-64,R
-125.02,22.6,-47.59,127,-318,104,R
-126.78,19.44,-49.35,252,-294,-142,R
-128.03,17.21,-49.21,-184,-255,294,R
-128.7,17.07,-47.08,117,243,134,R
-100.55,43.16,-3.34,-165,235,-101,R
-115.01,28.76,-32.23,-123,144,-294,R
-115.89,32.95,-28.58,261,121,-175,R
-116.26,34.87,-26.45,50,-301,-92,R
-115.19,33.17,-2.48,-255,69,106,R
-113.54,34.06,-2.97,184,84,-152,R
-112.28,34.38,-3.47,-238,-269,13,R
-111.0,34.34,-4.16,-278,100,-160,R
-109.31,34.82,-4.76,-34,-105,-203,R
-107.47,35.93,-5.12,-114,199,-165,R
-105.92,37.14,-5.38,222,-267,-190,R
-104.8,38.07,-6.01,34,-81,205,R
-104.05,38.77,-7.04,-22,93,50,R
-127.55,30.96,-11.08,144,228,-3,R
-129.06,30.4,-8.48,-249,50,221,R
-130.12,30.1,-5.45,97,165,286,R
-133.81,31.04,4.18,-116,-279,-62,R
-135.9,31.89,7.33,130,-262,-78,R
-137.86,34.31,14.13,-214,-148,-259,R
-95.56,43.49,-10.75,-199,-72,-128,R
-94.5,45.1,-10.1,-91,81,202,R
-94.13,46.43,-9.6,-150,-102,-199,R
-107.1,44.61,0.48,185,-325,-317,R
-106.25,45.49,-0.17,37,-8,-101,R
-104.71,46.1,-0.85,15,242,-291,R
-102.85,46.73,-1.49,294,87,122,R
-101.16,47.5,-2.1,-49,24,278,R
-99.94,48.35,-2.71,285,-248,149,R
-99.15,49.35,-3.28,-192,-53,-246,R
23.43,-22.8,63.6,-114,-77,317,R
29.21,-28.21,59.32,-64,323,239,R
53.56,-52.78,36.54,267,-296,-193,R
59.6,-58.61,30.49,-112,190,-103,R
103.85,-62.73,-23.98,-160,-271,91,R
103.41,-62.93,-23.73,-187,223,-64,R
101.68,-63.06,-22.83,147,-210,-72,R
100.47,-62.82,-22.3,72,-216,-177,R
93.05,-65.46,-17.73,-178,-102,80,R
93.32,-66.62,-17.13,-124,102,152,R
93.77,-68.11,-16.42,55,138,-66,R
93.68,-71.12,-14.3,183,-248,276,R
93.33,-72.64,-12.95,-97,-113,309,R
93.17,-74.34,-11.55,99,93,-121,R
86.68,-85.05,3.93,161,-159,-9,R
86.69,-84.73,3.66,-190,-308,257,R
87.5,-85.8,2.52,21,181,202,R
87.9,-86.43,2.06,-76,308,-222,R
95.74,-84.8,-4.48,-241,-211,-316,R
95.81,-84.74,-4.5,-141,-276,-237,R
95.78,-84.8,-4.5,10,120,294,R
95.82,-84.78,-4.54,14,-75,112,R
101.32,-78.43,-4.49,-256,-276,-255,R
99.64,-78.11,-2.32,86,44,-311,R
99.46,-77.93,-1.89,137,92,159,R
99.4,-77.84,-1.28,167,156,-228,R
111.64,-74.51,-8.38,6,240,-312,R
111.51,-74.35,-8.22,-85,-303,-209,R
111.79,-73.0,-8.42,-143,-29,189,R
111.73,-72.84,-8.49,-29,32,41,R
104.65,-71.12,-9.41,-262,-157,-307,R
104.28,-70.6,-9.39,-194,-243,216,R
103.96,-70.26,-9.45,-54,298,-104,R
103.76,-70.04,-9.59,125,-11,22,R
97.27,-72.35,-13.37,-156,245,-116,R
97.18,-72.79,-13.2,-223,-251,-294,R
97.22,-73.22,-13.07,312,-232,250,R
97.85,-73.97,-13.09,36,-310,140,R
98.33,-71.25,-15.77,82,-140,125,R
97.09,-70.57,-15.69,88,78,-285,R
96.26,-70.3,-15.49,-93,129,246,R
95.5,-69.91,-15.36,-247,-242,183,R
95.22,-69.47,-15.44,274,140,-112,R
97.17,-72.25,-12.47,25,164,-177,R
96.74,-72.1,-12.45,-324,251,165,R
96.23,-71.84,-12.32,-133,-80,318,R
94.26,-68.36,-11.72,-308,302,-129,R
94.36,-67.96,-11.91,-176,-131,161,R
94.46,-68.06,-11.96,-28,7,144,R
95.43,-70.66,-12.61,-284,211,250,R
95.18,-71.39,-12.23,37,-165,-316,R
95.39,-71.92,-12.04,300,10,-42,R
129.18,39.13,43.39,141,235,-231,R
128.02,45.22,41.3,160,-302,296,R
122.63,57.73,32.23,109,289,-44,R
100.94,48.14,33.88,68,-101,-43,S
102.42,48.06,34.25,-92,-37,33,S
103.46,48.1,34.61,-100,303,33,S
104.23,48.41,35.02,310,14,-257,S
104.63,49.01,35.36,211,-114,-87,S
104.57,49.81,35.52,-297,-53,85,S
104.43,50.88,35.39,-38,324,150,S
104.79,52.29,34.97,79,-106,-250,S
-64.94,63.0,15.4,310,-170,42,S
106.5,38.77,48.6,142,-311,-7,S
107.62,38.99,49.46,-28,-146,-177,S
-38.57,-1.62,74.0,-42,202,82,S
-43.71,-25.71,53.3,233,-277,166,S
61.47,-80.62,-5.7,-189,38,-118,S
43.91,-80.62,-2.71,-25,-256,-285,S
36.76,-80.55,-1.86,-202,103,-160,S
-66.65,-80.69,4.99,-226,132,-212,S
-67.72,-81.48,4.46,-90,-244,-145,S
-71.39,-85.46,1.31,245,-220,-25,S
-71.52,-85.36,1.3,117,258,86,S
-73.82,-85.59,1.46,276,270,-258,S
-78.3,-86.12,1.71,-120,-233,-256,S
-79.77,-86.53,1.51,-281,216,-82,S
-81.43,-86.8,0.7,-317,179,-171,S
-81.32,-86.73,0.73,-302,97,-150,S
-81.3,-86.65,0.75,325,-40,-97,S
-81.69,-86.59,0.86,272,16,-145,S
-84.69,-87.25,0.79,-74,-14,-184,S
-84.54,-87.23,0.71,-28,-61,-154,S
-84.54,-87.23,0.62,-170,230,-104,S
-85.82,-88.0,0.16,-108,122,-102,S
-85.88,-88.04,0.13,-110,163,-91,S
-86.14,-88.17,0.1,-87,249,-130,S
-87.81,-88.71,0.24,5,107,-121,S
-87.64,-88.63,0.16,-106,218,-86,S
-88.34,-88.96,0.08,63,79,-239,S
-88.74,-89.32,-0.19,-183,279,41,S
-88.69,-89.3,-0.3,-191,-187,-91,S
-83.73,-82.75,-7.21,123,-138,-6,S
-81.4,-81.59,-8.41,-216,318,213,S
-83.17,-83.44,-6.56,319,273,264,S
-82.64,-83.24,-6.74,169,-66,172,S
-81.97,-83.01,-6.93,-109,192,216,S
-140.24,-40.94,48.73,60,70,-288,S
179.29,33.34,46.17,-61,14,247,S
179.88,33.26,44.52,229,24,99,S
-71.77,38.64,-24.98,20,153,-93,L
-72.98,37.77,-29.29,92,240,-209,L
-74.48,37.29,-32.86,63,-55,232,L
-76.6,37.49,-34.85,-54,-146,268,L
-79.24,38.79,-35.4,20,178,-178,L
-82.43,40.96,-35.56,-160,4,323,L
-85.49,43.23,-35.91,45,84,-176,L
-87.94,46.71,-35.91,-165,-241,231,L
-88.2,50.28,-25.96,-286,321,87,L
-87.18,50.64,-23.84,258,79,88,L
-87.36,50.96,-20.22,223,259,-78,L
-64.52,76.59,0.18,152,-211,134,L
-44.32,73.55,9.14,13,141,-76,L
-98.12,-45.92,-3.91,-60,-100,-161,L
-96.9,-47.07,-6.65,-99,11,110,L
-92.38,-50.53,-12.71,2,44,-130,L
-89.16,-52.7,-14.9,189,166,225,L
-85.17,-54.94,-15.38,281,277,55,L
-76.19,-59.83,-24.04,-262,-162,-129,L
-76.69,-59.8,-23.91,-164,-77,270,L
-77.2,-59.79,-23.77,-35,-10,50,L
-74.17,-58.41,-25.43,55,53,305,L
-74.07,-58.93,-25.04,-311,-72,-282,L
-74.29,-58.76,-24.84,26,-225,107,L
-75.24,-57.96,-24.46,-301,295,82,L
-75.72,-57.81,-24.09,-74,196,-135,L
-76.02,-57.83,-23.74,53,-138,83,L
-76.43,-57.74,-23.07,183,-1,93,L
-74.03,-56.1,-26.66,108,268,0,L
-77.24,-54.93,-27.42,133,-132,-1,L
272.92,-6.92,27536213.72,-77,-54,0,L
-76.93,-54.52,-28.77,168,-72,-310,L
-76.56,-54.57,-29.12,-40,71,-286,L
-67.06,-55.04,-31.95,-192,199,237,L
-66.42,-54.86,-32.15,-253,89,231,L
-54.74,-51.02,-37.69,173,138,21,L
-54.74,-51.06,-37.67,188,112,51,L
-52.5,-52.67,-36.27,51,87,281,L
-61.14,-57.2,-25.59,6,269,-254,L
-37.07,-51.59,-33.94,-150,-296,-10,L
-55.72,-58.47,-31.02,-86,314,183,L
-56.56,-59.1,-30.51,-42,-114,104,L
-54.63,-65.34,-22.04,-140,35,-180,L
-54.14,-65.2,-22.27,-160,-280,221,L
-53.13,-65.53,-21.29,314,-4,155,L
-57.21,-68.96,-15.85,-22,197,-128,L
-67.83,-78.59,-6.33,-142,-152,-249,L
-67.73,-78.67,-6.59,-318,215,-179,L
-67.58,-78.66,-7.08,98,-10,-15,L
-126.21,-53.2,36.79,-16,-144,183,L
-148.85,-40.89,48.19,298,-20,258,L
-156.62,-37.13,50.73,-126,46,149,L
-163.89,-33.08,53.06,-47,281,-100,L
-170.16,-28.79,55.41,292,-268,-296,L
110.98,64.86,13.69,29,-66,100,L
111.68,64.67,13.8,148,-249,68,L
112.66,64.36,14.01,117,-270,160,L
113.72,63.86,14.26,77,-317,-209,L
114.77,63.14,14.59,238,257,274,L
81.34,-79.51,9.13,278,149,-105,S
82.01,-80.31,8.29,-250,-175,-33,S
82.7,-81.13,7.41,-62,-130,-221,S
83.25,-81.74,6.64,259,-116,106,S
83.54,-81.95,6.08,54,102,-232,S
83.4,-81.74,5.86,-116,60,103,S
82.9,-81.33,5.93,213,-265,-165,S
82.36,-80.98,6.06,282,251,219,S
81.99,-80.83,6.09,101,52,-107,S
96.41,-76.46,11.72,89,295,-290,S
101.99,-72.48,14.8,-33,-289,131,S
109.09,-67.6,18.4,114,180,-37,S
117.14,-61.98,21.9,-293,52,-175,S
123.7,-55.93,24.86,263,33,217,S
130.26,-43.3,29.58,-230,-33,-256,S
133.0,-30.42,32.93,-106,153,-106,S
115.86,63.72,24.25,265,-219,-202,S
117.58,61.72,25.4,-152,152,-317,S
124.24,53.17,32.13,5,-138,95,S
148.4,-4.4,50.62,121,-129,-249,S
149.92,-11.06,48.86,192,-189,142,S
150.11,-17.81,45.65,287,-106,45,S
149.14,-24.72,42.05,70,90,65,S
147.36,-31.73,38.89,218,129,159,S
124.73,-58.41,27.83,28,-14,-101,S
88.19,-54.8,-15.72,277,165,-188,S
89.18,-55.31,-15.95,-88,13,-214,S
91.22,-56.61,-16.32,-51,-282,-321,S
86.77,-65.16,-1.99,85,150,-20,S
85.82,-65.57,-0.43,288,77,-93,S
84.95,-65.89,1.03,-114,-128,-123,S
84.16,-66.16,2.37,146,226,-57,S
83.52,-66.44,3.51,-281,-96,128,S
83.69,-71.22,5.14,285,-212,-168,S
83.81,-72.29,3.77,-70,-61,227,S
83.73,-72.97,3.39,-37,-283,-234,S
82.73,-75.14,2.93,252,58,43,S
124.2,-41.83,26.45,-285,-254,-307,S
131.32,-34.58,29.22,210,321,313,S
134.36,-30.96,30.52,-244,210,101,S
140.03,-19.81,33.76,203,-291,10,S
112.18,67.67,22.32,128,-199,-152,S
113.41,66.93,22.99,253,137,-125,S
118.58,62.23,26.16,69,317,263,S
122.07,58.31,28.45,99,294,239,S
123.01,56.99,29.38,-236,204,-322,S
143.02,15.72,46.46,-228,114,208,S
147.62,7.65,49.55,310,-131,-168,S
163.01,-18.67,52.01,-44,-326,246,S
166.82,-27.23,49.88,284,300,-326,S
172.85,-41.53,42.67,-233,-208,130,S
174.88,-48.4,37.55,-220,193,215,S
77.25,-54.66,-15.15,-298,20,244,S
79.8,-56.51,-14.46,115,-323,-35,S
84.53,-60.63,-13.39,-33,46,-325,S
86.37,-62.49,-12.83,-51,-101,-104,S
91.83,-73.54,-5.23,133,-295,207,S
91.14,-73.98,-4.26,-69,318,316,S
89.35,-75.91,-0.33,-253,177,-70,S
87.65,-78.97,3.18,250,-74,-196,S
88.42,-79.07,2.3,-132,43,50,S
78.99,-75.89,13.89,-240,-79,325,S
80.78,-72.6,16.54,-297,194,157,S
84.73,-68.67,19.36,211,-238,111,S
89.52,-64.04,22.84,200,-47,202,S
114.66,64.92,24.76,-314,216,-61,S
113.1,66.88,23.12,-66,-242,91,S
110.77,68.55,20.67,55,-96,85,S
109.93,68.45,19.91,-39,-187,148,S
109.24,68.15,19.36,-87,-28,-273,S
108.09,68.02,18.46,-121,-234,196,S
107.79,68.23,18.26,16,-269,261,S
116.69,63.4,26.54,-297,-89,-68,S
116.7,63.36,26.61,-192,185,-26,S
117.22,62.83,27.13,-153,-207,232,S
118.06,61.99,27.92,69,-61,73,S
119.21,60.79,29.02,-217,-77,105,S
125.41,54.0,34.7,-91,-35,-299,S
25.63,-65.38,-15.65,320,61,-57,S
66.67,-61.03,-15.59,-10,149,10,S
92.67,-79.98,-5.28,-252,89,-110,S
92.46,-79.81,-5.1,-304,132,-304,S
91.46,-79.67,-3.95,-124,248,260,S
-94.51,-87.64,-1.49,-185,26,270,S
-94.4,-87.8,-1.4,280,26,237,S
-95.68,-87.45,-1.63,10,-18,110,S
-98.37,-86.71,-2.12,-210,10,-282,S
-102.32,-85.87,-2.6,-42,258,302,S
-107.11,-85.11,-2.9,70,-84,-62,S
158.3,-79.35,-3.33,-15,235,248,S
-88.9,-86.0,-3.06,65,33,263,S
168.93,15.35,73.13,204,-30,-186,S
165.44,19.49,69.22,278,-150,211,S
161.04,47.81,40.67,17,-93,-327,S
161.13,46.08,42.16,178,7,-46,S
-138.13,-36.78,45.05,-102,317,287,S
-69.17,-79.73,-9.71,-145,-234,-88,S
-88.59,-78.72,-11.23,139,312,210,S
-102.47,-78.85,-10.92,16,-266,32,S
-86.85,-83.98,-5.21,-273,169,-246,S
-174.07,36.75,48.21,-148,226,194,S
169.88,43.55,44.1,77,275,-52,S
176.36,2.03,76.73,41,46,-102,S
-177.86,-3.22,74.71,-8,-229,39,S
-51.77,-70.92,-16.77,127,-57,-242,S
-57.12,-74.3,-14.75,-98,-178,-235,S
-61.47,-75.8,-13.37,-280,-250,211,S
-84.84,-79.56,-9.42,4,-294,-325,S
-82.86,-81.96,-7.96,155,139,79,S
-82.97,-82.76,-7.23,198,-67,303,S
-84.95,-85.6,-4.07,-311,44,-31,S
-167.58,0.83,66.24,-165,232,-106,S
-176.87,15.15,62.19,123,-126,20,S
179.88,19.43,60.37,165,-32,262,S
169.7,32.85,52.03,312,-206,22,S
177.85,42.07,44.76,-299,12,-70,S
175.46,39.69,47.26,258,314,-50,S
-135.71,-44.16,42.37,-97,-118,-26,S
-129.85,-49.03,36.99,84,98,-127,S
-123.49,-54.19,31.47,-55,314,-50,S
-107.35,-66.74,17.73,302,-309,68,S
-142.36,33.56,51.84,69,22,239,S
-146.31,32.89,52.3,-160,-156,-275,S
-150.51,32.3,52.68,-192,117,-153,S
-155.01,31.75,53.01,-19,210,-1,S
-159.79,31.2,53.35,-246,195,239,S
-164.53,30.59,53.72,-187,74,-25,S
-168.86,29.88,54.22,-29,-247,0,S
-172.9,29.01,55.0,-60,-140,-114,S
-177.01,27.96,56.24,211,-143,-165,S
-75.55,-69.86,-9.76,-198,39,-35,S
-71.84,-69.15,-12.6,-290,-88,255,S
-68.69,-68.55,-14.9,142,-130,219,S
-66.1,-67.96,-16.69,236,-239,132,S
-58.78,-65.73,-20.6,278,-160,114,S
-57.96,-65.71,-20.81,2,224,256,S
-70.02,-76.84,-12.72,-172,44,-19,S
-70.81,-77.43,-12.17,-290,312,-90,S
-70.78,-77.84,-11.74,146,-171,260,S
-68.44,-78.03,-11.33,-234,135,-44,S
-65.39,-78.03,-11.06,-286,-164,-264,S
-64.5,-77.98,-11.08,-56,170,-256,S
-90.87,-85.42,-0.24,-266,180,326,S
-92.27,-84.96,1.23,244,290,270,S
-93.87,-83.99,2.9,242,-271,227,S
-95.75,-82.5,4.88,-149,-120,-267,S
-97.87,-80.6,7.15,-302,97,189,S
-102.51,-76.0,12.15,-265,21,-240,S
-112.41,39.64,46.33,192,-198,-128,S
-113.18,39.06,46.69,-234,61,-240,S
-129.43,32.32,50.47,-305,99,-209,S
-142.38,-37.44,48.17,202,212,-189,S
-135.93,-42.95,42.42,303,28,105,S
-129.8,-48.02,36.89,-324,57,42,S
-109.52,-63.36,19.11,-20,-31,-300,S
-95.49,-71.16,6.98,-183,84,176,S
-70.16,-74.55,-14.95,-14,282,-296,S
-70.24,-74.61,-14.91,226,298,91,S
-70.3,-74.57,-15.01,-162,-307,297,S
-72.93,-75.45,-14.45,-322,-298,172,S
-76.43,-76.51,-13.49,-121,161,-246,S
-76.71,-76.51,-13.49,80,-12,-222,S
-77.25,-76.59,-13.4,-89,110,-185,S
-79.03,-76.68,-13.26,26,316,11,S
-79.19,-76.6,-13.32,-189,167,-50,S
-79.54,-76.55,-12.7,-323,77,296,S
-79.84,-77.23,-12.1,-25,-31,-122,S
-80.2,-78.01,-11.42,263,-119,44,S
-80.69,-78.95,-10.61,-170,-295,238,S
-85.05,-84.71,-5.22,-106,155,-209,S
-86.69,-86.65,-3.35,-239,214,-58,S
-172.2,27.53,57.16,-62,-174,300,S
-173.56,30.24,55.43,115,-204,277,S
-171.52,36.36,50.97,-91,270,82,S
-120.32,41.07,45.86,-112,268,-129,S
-120.04,41.58,45.6,-173,-117,79,S
-119.96,41.97,45.39,-237,170,-103,S
-122.62,42.23,45.4,6,154,118,S
-175.47,-9.8,74.16,165,-219,100,S
-168.56,-16.45,68.21,-297,291,66,S
-160.72,-23.69,61.68,-162,-52,-307,S
-130.86,-49.99,36.05,259,-248,184,S
-123.52,-56.16,29.77,-148,238,125,S
-74.9,-76.65,-13.11,-12,-173,251,S
-75.35,-76.95,-12.85,32,-297,216,S
-76.22,-77.61,-12.23,44,-97,-72,S
-77.01,-78.21,-11.68,75,-62,83,S
-76.54,-78.24,-11.52,210,-33,22,S
-77.27,-78.02,-11.95,306,-204,-289,S
-77.82,-78.08,-11.91,-42,-109,259,S
-79.83,-78.37,-11.55,-280,-265,11,S
-80.37,-78.66,-11.23,-73,-295,-144,S
-83.35,-79.41,-7.65,84,-276,-166,S
-83.47,-80.23,-7.21,-121,147,233,S
-85.63,-83.67,-4.36,-17,-43,36,S
-86.69,-84.98,-3.17,135,2,178,S
-162.66,10.33,70.68,-7,-84,0,S
-164.43,14.19,68.53,-127,244,255,S
-165.43,17.69,66.12,-151,-6,4,S
-163.58,28.72,57.5,148,-227,-315,S
88.56,-65.92,-22.62,-189,315,278,S
89.07,-66.17,-22.4,56,195,315,S
89.41,-66.39,-22.16,150,63,173,S
89.16,-66.78,-21.7,-265,-138,98,S
87.89,-67.1,-21.15,-136,290,40,S
86.11,-67.2,-20.68,-80,237,239,S
84.82,-67.2,-20.39,144,240,267,S
84.34,-67.07,-20.4,-166,275,285,S
84.67,-66.81,-20.72,262,-43,-298,S
-59.94,-72.29,-14.42,0,50,178,S
-60.35,-72.43,-13.67,-306,95,-141,S
-61.16,-72.87,-12.66,-38,-273,-324,S
-62.6,-73.78,-11.2,-215,27,-265,S
-64.69,-75.09,-9.4,150,219,165,S
-67.22,-76.59,-7.3,259,-317,61,S
-69.77,-77.86,-4.91,-160,-262,-309,S
-71.77,-78.04,-2.22,171,-92,27,S
-72.94,-76.05,0.94,278,-220,93,S
128.73,46.57,41.63,-147,272,-13,S
123.95,51.25,36.8,-288,-4,296,S
119.71,55.27,32.5,-12,229,-2,S
116.08,58.63,28.71,-285,-57,195,S
105.49,67.98,16.94,286,305,-228,S
104.02,68.95,12.07,-75,-88,-241,S
102.06,69.41,9.77,56,-13,-107,S
102.33,68.95,10.03,-33,-228,-29,S
106.4,64.95,13.62,122,-59,146,S
-106.19,-57.88,25.33,30,204,190,S
-88.84,-65.91,10.02,3,174,321,S
-45.77,-60.32,-28.88,-327,-59,184,S
-45.94,-59.88,-29.55,76,77,1836,S
-42.77,-59.51,-29.87,-124,321,302,S
87.51,-64.15,-22.39,-268,67,130,S
85.14,-64.2,-22.35,-291,320,235,S
82.96,-64.52,-22.19,327,-66,-321,S
75.69,-66.53,-20.59,-48,281,-104,S
-59.05,-79.03,-3.38,-36,207,-256,S
128.56,37.28,43.77,231,-276,-154,S
124.06,42.71,38.93,59,-277,150,S
110.87,58.8,23.42,-227,-281,-215,S
110.08,59.68,18.07,255,11,135,S
108.98,59.85,17.46,160,-281,157,S
-164.62,-13.97,74.97,-262,0,282,S
-158.54,-19.82,69.0,-90,-276,267,S
-135.98,-41.42,47.08,93,305,-278,S
-123.03,-54.85,34.3,268,-260,-284,S
-58.82,-60.91,-29.01,-276,84,227,S
-59.81,-61.05,-28.91,-173,222,230,S
-60.69,-61.15,-28.85,-103,-268,243,S
-62.48,-60.48,-29.45,-231,269,271,S
-62.75,-60.13,-29.77,286,-243,75,S
99.57,-61.11,-28.05,30,302,-46,S
97.67,-61.25,-27.85,148,86,162,S
95.12,-61.45,-27.58,174,-14,-313,S
130.01,30.8,52.11,229,160,-70,S
126.64,34.92,48.33,147,323,-108,S
118.71,44.18,38.83,33,-307,322,S
118.29,48.26,29.06,-257,-96,-90,S
-178.51,-11.26,73.01,90,35,196,S
-172.88,-15.77,70.59,-64,41,102,S
-141.68,-38.54,51.46,-268,56,-205,S
-68.47,-62.22,-27.57,281,320,51,S
59.32,-62.09,10.28,194,261,10,L
60.92,-62.76,9.89,-16,219,-28,L
62.76,-63.32,9.51,80,-21,276,L
64.51,-63.57,9.29,-71,-279,242,L
66.03,-63.51,9.27,-192,166,-93,L
67.48,-63.37,9.28,119,-55,-11,L
68.95,-63.26,9.25,176,-270,-50,L
70.45,-63.24,9.22,49,247,-97,L
71.92,-63.27,9.3,-197,169,-115,L
26.68,-74.99,-3.35,-109,251,188,L
23.47,-75.52,-3.81,115,182,181,L
20.9,-75.97,-4.31,-258,191,99,L
18.71,-76.2,-4.84,57,212,51,L
16.62,-76.24,-5.33,266,262,81,L
14.49,-76.14,-5.74,296,313,189,L
12.39,-75.98,-5.93,222,299,-213,L
85.65,-72.31,-11.07,-8,63,-15,L
89.45,-71.79,-12.51,-111,-97,-98,L
92.68,-71.44,-13.66,230,-201,-236,L
103.51,-76.06,-13.9,-5,-161,129,L
102.57,-76.33,-13.49,-106,298,12,L
102.02,-76.41,-13.29,196,138,-80,L
105.68,-73.23,-16.71,60,12,235,L
106.06,-72.18,-17.71,-80,40,-181,L
105.81,-71.83,-18.03,-131,293,253,L
89.64,-77.41,-10.38,-184,-102,68,L
89.19,-77.49,-10.24,-220,-153,15,L
84.52,-76.33,-10.58,235,261,-50,L
82.41,-75.87,-10.66,259,-118,91,L
79.95,-75.39,-10.71,208,171,-290,L
-24.16,-75.2,-9.32,34,-270,26,L
-37.11,-75.25,-9.61,-79,308,61,L
-47.99,-75.79,-9.85,-108,326,68,L
-51.27,-76.07,-9.85,31,245,-80,L
-72.82,-81.29,-5.85,-97,-211,-40,L
-72.16,-81.1,-6.7,-293,-158,204,L
-71.98,-81.04,-7.01,61,134,-65,L
-71.59,-80.98,-7.45,178,-228,-210,L
-71.48,-80.99,-7.65,-5,-173,-199,L
-71.19,-80.91,-7.9,-129,-210,-138,L
103.57,-78.29,-11.69,20,111,149,L
102.73,-77.95,-12.05,162,-18,-312,L
102.35,-77.91,-12.09,49,192,-232,L
100.79,-77.96,-12.02,-190,83,233,L
95.46,-76.53,-9.89,161,-218,-169,L
94.75,-76.1,-9.57,-44,118,139,L
93.64,-75.36,-8.89,-30,-202,-262,L
93.09,-74.98,-8.42,-148,230,-321,L
92.89,-74.89,-8.29,277,164,-320,L
77.86,-77.31,10.87,196,-219,259,L
59.51,-59.41,30.58,-64,-143,159,L
55.07,-54.92,35.06,-304,-66,-89,L
50.65,-50.46,39.51,-115,226,-198,L
-34.73,34.8,55.2,-164,-276,-53,L
-37.0,37.04,52.96,-279,-278,-36,L
-38.92,38.97,51.03,243,59,-134,L
-41.04,41.14,48.84,-244,316,-268,L
-55.1,55.25,34.51,315,176,278,L
-124.65,47.93,-27.99,287,120,288,L
-126.5,46.17,-27.08,216,-88,109,L
-127.94,44.57,-25.58,238,-19,63,L
-131.63,40.64,-19.08,-319,61,263,L
-132.93,39.96,-16.18,-191,310,64,L
-134.24,39.18,-13.37,122,274,-260,L
-135.62,38.11,-10.8,-4,-150,-324,L
-105.11,51.08,-16.43,109,221,-30,L
-103.19,51.51,-16.38,129,116,-186,L
-96.52,54.52,-12.62,-94,251,-260,L
-118.51,48.37,-10.36,-318,240,-147,L
-119.98,48.4,-8.39,-136,235,-268,L
-123.45,49.5,-4.19,194,-75,-42,L
-125.25,50.45,-2.25,129,-65,-198,L
-125.71,52.32,0.22,-267,-247,-320,L
-123.95,56.21,6.29,271,324,-278,L
-86.77,51.1,-9.98,-167,141,-248,L
-84.91,51.23,-8.4,262,282,-156,L
-83.62,52.69,-5.91,-70,-251,69,L
-82.73,54.49,-3.51,-8,-320,-138,L
-81.8,55.36,-1.16,-214,-324,-312,L
-80.6,54.41,0.08,207,194,-20,L
-79.8,54.66,0.95,-78,103,16,L
-116.8,62.8,15.6,-319,-137,-268,L
-115.46,61.06,19.01,254,217,-275,L
-109.67,52.58,25.78,23,-234,-62,L
-108.56,52.3,25.3,139,-66,-235,L
-107.82,52.81,24.1,-87,-67,-82,L
-81.49,63.26,-1.25,67,245,-266,L
-81.41,63.59,-1.05,37,-2,-276,L
-81.42,64.5,-0.67,-2,21,85,L
-82.23,65.52,-0.77,-58,179,-149,L
-87.54,65.84,-4.38,-10,71,-138,L
-88.09,-74.66,-4.69,-17,-287,-57,S
-88.48,-74.84,-4.24,129,-174,-75,S
-88.91,-75.13,-3.78,279,228,-37,S
-89.37,-75.58,-3.31,-38,292,-311,S
-89.71,-76.16,-2.91,-242,-206,242,S
-89.95,-76.88,-2.52,185,-98,-320,S
-83.84,-83.8,-6.2,-268,-223,-70,S
-82.99,-83.27,-6.67,-301,-45,-55,S
-82.14,-82.56,-6.91,-118,-2,249,S
-81.19,-79.83,-7.1,137,-194,-3,S
-80.19,-78.55,-7.44,-107,-205,95,S
-80.14,-78.54,-7.46,-47,-191,109,S
-78.43,-77.49,-7.6,214,35,187,S
-78.26,-77.39,-7.71,2,-64,107,S
-77.81,-77.68,-7.99,52,80,107,S
-77.52,-77.91,-7.6,66,68,114,S
-78.31,-78.21,-6.94,-33,110,124,S
-81.22,-80.85,-5.0,311,40,-34,S
-85.06,-82.57,-1.44,52,149,-92,S
154.15,34.7,49.68,-34,-80,-92,S
150.41,39.0,45.41,219,-196,319,S
88.39,81.53,1.18,219,265,-209,S
146.05,52.83,27.48,288,-83,189,S
73.6,66.25,15.05,160,-228,223,S
134.83,56.8,29.39,40,160,252,S
67.19,67.16,15.49,103,-259,188,S
85.62,65.84,17.82,-276,55,236,S
134.75,51.06,34.96,240,-18,-38,S
129.4,53.66,34.48,-156,242,210,S
120.09,60.07,29.86,-181,-119,-305,S
100.69,70.16,17.17,-84,-292,-201,S
102.29,70.3,17.09,-170,-129,-295,S
104.31,70.24,17.5,-113,234,133,S
101.31,-73.58,-15.82,153,111,297,R
102.01,-74.04,-15.58,100,257,103,R
102.52,-74.43,-15.34,-96,-112,-81,R
102.97,-74.74,-15.12,176,-192,-61,R
103.63,-74.95,-14.99,-213,-90,119,R
104.51,-75.04,-14.95,243,-94,230,R
105.41,-75.03,-14.96,131,-195,167,R
106.13,-74.97,-14.99,-93,258,-59,R
106.55,-74.94,-14.98,-58,35,-265,R
110.44,-81.24,-8.75,-140,-77,-264,R
115.28,-81.37,-8.63,311,-301,309,R
-108.23,-81.45,-8.55,166,292,188,R
-86.11,-81.49,-8.51,128,-321,17,R
-81.52,-81.29,-8.71,-296,-32,286,R
-5.15,-73.18,-6.2,252,246,242,R
-3.42,-72.29,-5.82,295,-277,202,R
5.98,-71.28,-5.89,279,269,221,R
12.5,-71.33,-6.34,-187,194,-312,R
19.33,-71.61,-6.94,98,-240,233,R
95.23,-66.81,-22.44,55,-4,-41,R
95.72,-66.96,-22.31,-71,262,-309,R
96.15,-67.33,-21.91,-112,-63,247,R
97.84,-67.37,-21.93,182,-30,-235,R
115.17,-61.0,-28.54,64,193,300,R
115.23,-60.78,-28.72,220,178,-181,R
115.52,-60.43,-29.03,18,-227,-8,R
116.0,-59.97,-29.48,216,126,20,R
116.5,-59.4,-30.0,32,-165,-84,R
116.94,-58.83,-30.49,-108,220,-122,R
124.97,-53.11,-35.21,278,52,230,R
125.11,-52.89,-35.41,-318,-121,184,R
125.22,-52.67,-35.57,-276,-217,278,R
125.59,-52.21,-36.0,205,47,-95,R
126.19,-51.71,-36.53,-202,-188,292,R
126.62,-51.31,-36.89,-88,38,315,R
127.04,-50.82,-37.28,-45,-225,4,R
260.36,-315.72,-18664.98,114,-60,-27,R
113.96,-58.86,-28.26,-253,38,-154,R
115.01,-59.68,-27.16,-202,-201,159,R
113.29,-60.47,-25.61,182,264,-4,R
97.07,-65.25,-20.09,-171,56,-103,R
95.85,-65.8,-19.47,9,-37,109,R
95.09,-66.51,-18.87,215,60,-284,R
94.9,-67.14,-18.49,-90,-226,-44,R
95.7,-67.61,-18.63,316,234,243,R
94.25,-70.14,-17.97,160,-237,-296,R
95.55,-70.81,-17.41,-250,203,-281,R
47.31,-56.46,3.45,-35,-155,12,R
-84.56,77.47,11.79,-304,243,-213,R
-110.0,71.8,6.62,101,140,-269,R
-114.44,69.6,6.25,74,230,308,R
-121.29,65.52,5.84,-297,143,-164,R
-123.89,63.61,5.5,-163,235,163,R
-164.99,45.02,-8.07,82,76,316,R
-176.27,51.03,-3.05,248,-194,-320,R
179.96,53.45,0.59,-276,290,99,R
175.65,56.27,5.53,-134,242,93,R
171.71,58.45,11.23,-24,161,-10,R
172.02,58.08,16.94,-150,120,-181,R
-148.65,40.15,-38.73,130,308,190,R
-147.23,40.48,-40.48,184,290,91,R
-146.75,41.09,-40.13,312,248,84,R
-146.11,41.87,-39.53,-165,-221,232,R
-145.33,42.87,-38.72,85,-263,309,R
159.3,58.27,12.08,68,295,174,R
177.16,48.61,26.02,-3,209,-10,R
-179.13,47.11,26.82,182,-108,-145,R
-177.47,46.76,26.22,100,97,294,R
-177.56,47.08,24.51,222,-258,-30,R
-178.6,47.58,21.99,-224,-190,3,R
-146.12,47.02,-32.93,-169,38,300,R
-142.43,50.68,-30.24,97,-26,11,R
-148.12,47.99,-31.54,-278,-98,-266,R
176.43,48.66,19.97,99,145,-97,R
176.78,48.45,19.0,-320,175,132,R
-177.32,47.27,17.09,50,210,103,R
-175.68,46.92,16.13,1,207,-94,R
-153.4,42.21,-33.21,-205,-131,226,R
-154.93,41.17,-34.19,257,108,261,R
-156.8,40.29,-34.53,227,-185,209,R
-105.98,52.61,-17.26,158,-152,105,S
-108.42,50.53,-18.49,-222,-28,120,S
-110.54,48.78,-18.94,-309,-173,97,S
-112.48,47.56,-18.67,61,-27,308,S
-113.95,47.05,-17.65,165,219,322,S
-114.78,47.28,-16.06,-186,-217,260,S
-115.22,47.93,-14.32,-42,-72,286,S
-115.77,48.61,-12.56,-280,202,180,S
-116.72,49.31,-10.81,-18,-138,121,S
-104.58,56.19,5.6,265,155,-254,S
-103.05,56.34,4.37,288,44,-171,S
-101.55,56.76,3.09,202,70,215,S
-100.51,57.06,1.54,313,-98,-191,S
-100.13,56.99,-0.33,-38,-154,-178,S
-99.99,56.8,-2.1,-104,239,246,S
-99.62,56.96,-3.49,185,-77,-301,S
54.51,-41.78,5.31,-192,89,-307,S
58.61,-42.59,-0.34,-323,94,32,S
61.91,-43.55,-5.22,-49,-97,208,S
65.22,-44.41,-10.04,-205,-314,15,S
76.88,-44.96,-21.9,-259,-202,-85,S
81.37,-44.59,-24.89,-199,139,-88,S
115.15,-62.2,-24.72,156,-156,-318,S
114.44,-63.28,-23.79,32,78,-202,S
113.7,-64.31,-22.83,48,-270,38,S
113.03,-65.28,-21.93,83,-49,195,S
111.72,-68.09,-19.37,-220,176,-86,S
97.06,-78.93,-8.8,-214,60,-250,S
95.92,-79.16,-8.22,318,112,19,S
94.93,-79.35,-7.79,282,-311,269,S
94.14,-79.45,-7.56,-300,-5,-98,S
92.97,-78.7,-7.9,264,233,-77,S
91.12,-76.83,-8.66,113,-191,-118,S
89.87,-75.59,-9.15,129,120,196,S
97.93,-64.71,-21.77,-126,53,-199,S
98.98,-63.77,-22.83,89,-184,-318,S
100.52,-61.89,-24.73,-161,-162,-34,S
104.09,-59.51,-27.45,226,264,-174,S
102.67,-59.36,-27.32,-49,-78,-12,S
102.17,-59.59,-26.94,231,202,293,S
106.24,-61.65,-26.07,-125,107,-181,S
106.35,-60.54,-26.45,-98,166,326,S
100.77,-60.82,-24.07,299,52,241,S
100.81,-60.43,-24.26,39,327,196,S
100.62,-60.22,-24.32,265,-315,86,S
100.35,-60.14,-24.34,-217,-165,-36,S
101.42,-69.32,-18.34,-204,231,-173,S
101.6,-70.07,-17.85,-145,-72,-129,S
101.94,-70.17,-17.77,-60,-41,-136,S
102.24,-69.93,-17.96,87,264,-265,S
104.82,-72.13,-17.23,304,72,43,S
104.31,-73.21,-16.2,0,-5,326,S
104.28,-73.53,-15.95,-26,-221,109,S
104.1,-73.99,-15.53,-116,-41,320,S
50.97,-51.52,38.45,172,-18,-187,S
45.03,-46.92,42.85,-282,-149,316,S
25.46,-33.68,53.6,214,-202,148,S
18.59,-29.07,56.68,302,103,-85,S
4.68,-19.65,60.86,-137,130,273,S
-73.19,25.6,6.54,-78,197,-323,S
-74.28,26.98,3.86,-64,225,39,S
-74.32,27.51,2.57,191,-203,245,S
-74.4,27.72,1.32,-201,-53,-255,S
-74.88,25.64,-2.35,65,192,288,S
-64.32,23.18,1.61,-205,-94,-286,S
-63.99,23.95,1.95,-135,214,152,S
-63.54,24.67,2.03,147,90,-122,S
-63.64,25.4,2.09,242,-149,-139,S
-65.02,26.79,1.43,-242,168,-213,S
-66.9,17.18,1.69,24,64,151,S
-66.33,16.95,1.88,247,200,39,S
-65.8,16.94,1.84,-58,-32,-29,S
-65.4,16.99,1.74,289,236,-165,S
-65.18,17.03,1.69,-132,39,-41,S
-65.09,17.39,1.63,9,119,21,S
-63.38,31.94,-0.55,-240,-106,68,S
-64.09,32.54,-0.96,146,319,-323,S
-64.71,32.85,-1.37,-220,262,-238,S
-65.18,32.94,-1.66,-111,294,322,S
-65.5,32.88,-1.88,-91,-190,94,S
-58.49,23.96,3.44,-88,-48,28,S
-58.76,25.01,3.49,183,-228,194,S
-58.87,25.83,3.65,236,260,261,S
-58.82,26.51,3.8,259,187,285,S
-58.67,27.1,3.88,-318,293,254,S
-63.72,29.93,-2.21,152,234,-151,S
-63.51,26.41,-0.65,278,43,298,S
-63.36,24.82,0.4,264,134,-71,S
-63.1,23.41,1.56,170,-176,300,S
107.11,-79.61,-6.31,195,-142,-189,R
107.15,-79.56,-6.34,23,267,273,R
107.48,-79.29,-6.47,-75,-45,-88,R
107.98,-78.94,-6.67,-43,206,101,R
108.61,-78.51,-6.9,72,-235,101,R
109.2,-78.12,-7.14,239,0,-47,R
109.53,-77.9,-7.29,-245,244,-106,R
90.27,-83.68,-6.19,-305,-44,-53,R
84.42,-84.09,-5.47,250,127,310,R
79.38,-84.39,-4.74,37,-4,-217,R
3.65,-82.4,-3.29,107,243,-198,R
-77.96,-78.75,-11.13,322,-86,-301,R
-77.89,-78.98,-10.21,90,322,-309,R
-84.46,-84.36,-3.38,-283,159,-261,R
40.07,36.07,0.03,103,-149,15,R
37.4,32.11,6.77,-71,40,269,R
49.3,37.17,-7.82,-302,-24,251,R
36.34,32.5,-12.48,-235,-25,-204,R
39.26,33.67,6.38,-179,169,191,R
16.36,28.28,6.3,193,7,320,R
25.7,36.1,-3.1,-112,28,41,R
23.52,35.41,-3.77,-101,22,257,R
21.13,34.55,-4.26,241,52,-18,R
12.86,32.1,-3.67,202,-185,222,R
12.13,31.81,-2.53,97,-120,195,R
25.82,36.4,1.62,-285,192,76,R
32.22,36.57,5.02,-237,-153,257,R
32.15,35.87,5.48,-153,284,-287,R
32.5,35.26,5.68,-11,150,284,R
7.32,31.84,1.16,35,271,199,R
6.21,31.82,3.04,171,-189,81,R
4.91,31.68,4.78,-153,299,-23,R
3.77,31.52,6.34,-54,-305,254,R
3.12,31.47,7.66,-322,-230,-101,R
3.34,31.52,9.23,49,-249,23,R
3.94,31.52,9.41,-84,112,95,R
20.15,34.7,1.52,-194,161,-315,R
19.14,34.8,0.28,231,157,155,R
15.17,34.36,-4.07,297,-250,186,R
13.41,34.15,-4.76,253,244,-41,R
11.39,33.85,-5.36,242,224,-187,R
4.03,31.35,5.99,230,160,-182,R
5.97,32.04,5.11,-280,-12,47,R
11.05,35.55,2.9,119,104,-43,R
12.99,36.04,2.66,-316,-165,-7,R
-60.3,-66.43,-13.6,133,143,234,L
-59.32,-65.24,-13.96,310,-145,237,L
-57.84,-63.75,-14.25,310,119,-297,L
-56.2,-62.17,-14.26,167,226,-1,L
-54.73,-60.72,-13.91,61,-14,-283,L
-53.51,-59.55,-13.47,54,183,-5,L
-52.4,-58.64,-13.1,73,-68,9,L
-51.44,-57.98,-12.8,86,17,-134,L
-50.6,-57.46,-12.52,139,245,-319,L
-56.06,-60.72,-8.14,266,96,177,L
-56.74,-59.52,-9.43,-90,-66,304,L
-57.32,-59.08,-10.03,-194,-259,-170,L
-57.99,-58.7,-10.63,-191,-267,-225,L
-58.71,-58.39,-11.18,-148,-99,131,L
-59.93,-57.65,-12.01,-11,185,62,L
-48.29,-56.55,-26.87,-92,234,-114,L
-46.53,-55.63,-28.19,305,-272,200,L
-30.62,-46.56,-40.58,66,-184,183,L
-7.75,-50.41,-37.71,132,126,-289,L
-12.05,-51.82,-35.78,39,-221,173,L
-12.96,-52.13,-35.36,-98,-125,178,L
-13.6,-52.38,-35.01,-169,-24,155,L
-13.15,-52.49,-34.62,-225,293,49,L
2.37,-55.69,-23.89,-154,125,78,L
7.81,-56.21,-22.77,-230,-156,74,L
11.6,-56.09,-22.45,101,-105,-232,L
20.18,-55.55,-21.73,32,-40,-150,L
24.2,-55.13,-21.28,314,-23,245,L
28.28,-49.66,-3.65,107,-187,-166,L
19.5,-47.38,-3.17,128,-232,79,L
11.84,-44.62,-1.26,97,4,-139,L
46.04,-34.01,35.73,-194,42,288,L
37.27,-25.25,49.05,-222,129,-133,L
-79.61,30.26,34.23,-17,43,-92,L
-102.15,21.31,18.78,-149,-220,59,L
-103.66,20.2,18.04,-146,12,-180,L
-108.87,25.78,2.58,154,240,114,L
212.44,-189.0,-1091859.26,-109,24,1,L
-108.95,19.19,-1.03,174,156,212,L
-107.9,18.86,-0.82,170,208,-287,L
-106.75,18.81,-0.51,54,-47,60,L
-113.21,19.36,5.14,8,273,-237,L
-112.1,21.55,4.14,-161,-265,-306,L
-109.4,12.07,3.8,-27,106,-261,L
-109.68,11.52,4.53,-212,-42,-203,L
-109.65,11.36,4.24,302,77,174,L
-109.64,11.39,3.49,104,-5,-207,L
-111.98,12.29,-3.38,215,157,266,L
-113.05,15.19,5.62,-53,171,105,L
-112.81,14.78,6.58,-67,-145,-46,L
-117.48,9.41,-2.82,176,-177,-3,L
-117.25,10.05,2.03,-36,-143,252,L
-120.14,13.9,-2.28,280,-310,-181,L
-121.13,13.65,-2.77,136,139,-299,L
-131.63,13.17,2.88,-82,-222,-214,L
-139.84,8.29,-16.01,-149,-180,128,L
-137.6,9.25,-7.21,305,275,-66,L
-137.21,9.74,-5.36,24,-311,-123,L
-132.74,19.68,-1.79,99,-59,45,L
-132.96,21.8,-2.21,-285,-208,106,L
-133.93,21.83,-2.84,-314,225,15,L
-134.71,21.28,-3.4,-211,-266,-120,L
-135.6,20.61,-4.01,31,260,36,L
-134.14,16.19,4.34,243,-184,44,L
-133.28,18.07,9.36,295,11,87,L
-133.11,18.67,10.63,-31,10,170,L
-131.92,19.19,11.88,-285,260,-26,L
-136.36,17.64,-3.3,17,-78,-111,L
-136.37,16.88,-3.71,-308,-89,145,L
-136.28,16.89,-3.47,41,174,-298,L
-126.95,24.13,15.38,-85,241,-14,L
-126.46,24.81,12.7,252,130,-112,L
-130.78,25.8,6.36,200,-209,132,L
-131.04,25.27,5.23,65,-62,-86,L
-138.14,15.52,-6.38,-230,-128,266,L
-139.02,13.01,-8.17,125,46,-132,L
-139.38,12.76,-7.99,314,197,48,L
-140.01,13.16,-7.58,-289,214,-90,L
-140.39,13.66,-7.01,-320,-206,-103,L
-133.28,21.15,0.43,262,95,-111,L
-134.13,20.77,0.16,-241,101,240,L
-135.22,20.57,0.09,201,63,-54,L
-137.92,19.77,-0.15,-208,128,19,L
-139.3,19.13,-0.5,-150,115,279,L
-147.27,21.58,5.38,-95,-289,-24,L
-147.46,21.93,6.89,228,-81,-33,L
-53.29,26.76,6.03,-265,-88,180,R
-53.23,28.0,6.12,-78,-169,-311,R
-52.85,29.24,6.46,250,-62,-63,R
-52.28,30.11,6.8,-117,151,70,R
-51.73,30.4,6.96,-149,-304,125,R
-51.35,30.59,7.16,-176,140,-268,R
-51.07,30.95,7.66,-106,44,-123,R
-50.68,31.29,8.39,-32,100,-279,R
-49.99,31.08,8.97,-142,305,-70,R
-57.08,34.53,4.03,-142,-254,-215,R
-57.28,34.11,4.1,-299,-12,18,R
-57.44,33.33,4.08,57,-98,-62,R
-57.76,32.65,4.09,-78,-82,172,R
-60.13,30.0,4.44,-177,-54,-93,R
-60.68,29.05,4.73,-262,180,-96,R
-55.55,40.75,13.24,-126,59,-285,R
-51.72,40.49,18.22,152,52,268,R
-49.64,39.72,21.13,61,-48,-140,R
-47.58,38.47,24.08,-101,-262,-95,R
-45.6,37.0,27.26,-327,-268,20,R
100.01,-58.25,-6.27,-320,-174,-153,R
102.41,-56.62,-8.02,3,-284,219,R
104.8,-55.13,-9.59,-256,129,-212,R
107.06,-53.91,-10.98,264,-296,-69,R
111.56,-53.09,-13.75,205,50,224,R
120.4,-57.51,-12.03,168,289,103,R
120.32,-57.02,-12.23,237,-128,92,R
120.17,-56.91,-12.4,-224,115,-92,R
119.74,-56.71,-13.32,270,80,37,R
96.51,-59.54,2.42,-268,-247,97,R
95.47,-59.29,3.13,202,-321,-150,R
94.37,-58.99,3.88,3,-305,323,R
91.58,-57.78,5.54,85,-83,259,R
90.98,-56.9,5.43,100,115,-137,R
91.92,-46.28,-0.5,-120,45,-71,R
90.59,-44.25,-0.82,-89,-20,253,R
88.82,-42.97,-2.19,-266,-49,-290,R
65.06,-41.19,2.91,45,96,136,R
65.25,-41.17,3.44,143,0,137,R
67.01,-42.05,4.53,117,-201,-167,R
67.6,-42.26,4.95,-210,-192,92,R
68.22,-42.48,5.4,185,-157,-215,R
68.77,-42.65,6.07,-267,141,-321,R
-16.66,0.96,62.76,288,-242,-313,R
-24.42,6.23,56.91,129,-113,-42,R
-27.64,8.63,53.44,-197,221,39,R
-30.79,11.11,50.01,260,128,206,R
-59.71,18.35,6.01,239,162,272,R
-59.46,18.38,6.18,173,113,234,R
-58.77,18.65,6.68,-232,6,-293,R
-58.43,19.57,6.92,-18,270,189,R
-58.73,19.96,7.03,282,-247,283,R
-59.16,20.11,7.22,308,-152,-98,R
-59.25,20.05,7.46,36,240,-195,R
-62.41,17.39,0.76,196,-29,242,R
-62.91,17.82,0.84,-129,266,175,R
-63.55,18.29,0.84,204,-91,228,R
-64.3,18.78,1.08,29,57,-245,R
-65.29,19.26,1.68,9,-77,-186,R
-66.52,20.09,2.28,-169,-190,-92,R
-64.71,26.03,-1.2,136,-263,323,R
-64.38,26.59,-1.45,-166,-232,288,R
-63.24,28.13,-3.65,-31,85,257,R
-63.17,28.28,-3.85,-283,122,-256,R
-62.88,28.43,-4.07,213,-302,-181,R
-65.12,23.39,4.03,-184,-254,86,R
-64.61,22.6,6.06,-235,-261,-184,R
-63.9,22.54,6.33,-236,-295,26,R
-63.45,23.31,6.09,-64,-255,-320,R
-63.45,24.09,5.83,67,-238,-196,R
-55.21,23.25,14.23,209,46,119,R
-54.4,23.9,15.41,-293,-305,-175,R
-54.3,24.25,15.24,275,120,-225,R
-55.33,25.7,13.08,288,3,183,R
-56.14,26.73,12.06,-29,0,223,R
-64.3,20.61,3.17,-169,-144,48,R
-64.31,21.48,2.76,24,208,114,R
-63.99,24.71,2.04,318,40,-74,R
-64.05,26.23,1.79,190,85,173,R
-65.1,29.09,2.56,-296,-8,147,R
-70.95,32.94,-0.9,-150,258,-235,R
-71.84,32.38,-1.87,176,139,227,R
-72.28,31.89,-2.54,93,316,-185,R
-71.87,26.64,-1.14,-40,55,-246,R
-67.28,30.56,1.55,180,77,33,R
-66.75,31.7,1.43,-97,289,238,R
-66.42,32.62,1.52,12,-73,-320,R
-64.67,33.63,3.53,-322,-158,83,R
-63.24,33.24,4.16,-244,-260,122,R
-67.07,26.36,-1.74,-100,19,295,R
-66.81,22.5,2.95,94,132,181,R
-66.74,22.0,4.08,292,191,-155,R
-66.59,21.73,5.03,-146,-85,108,R
-39.28,32.34,6.97,-289,154,-56,L
-39.84,31.58,8.27,267,102,85,L
-39.78,30.64,9.73,-194,-313,-162,L
-39.23,29.57,11.36,278,-237,-77,L
-38.79,28.6,12.96,-97,23,-86,L
-38.96,27.99,14.34,-244,-60,60,L
-39.72,27.81,15.46,37,-139,34,L
-40.74,28.05,16.26,18,177,-229,L
-22.06,41.08,8.46,90,-187,146,L
-43.55,37.13,-2.11,-208,-276,243,L
-48.02,36.48,-4.88,190,92,-285,L
-50.4,31.62,6.11,-233,323,57,L
-49.08,32.72,5.71,-317,19,109,L
-45.83,37.36,-7.48,298,-26,114,L
-47.97,36.14,-8.24,277,-189,-216,L
-50.43,28.57,4.12,-101,-175,9,L
-60.96,29.39,-2.45,-150,157,-282,L
-50.01,35.68,-2.2,-144,-286,-202,L
-59.96,27.89,12.32,94,-191,263,L
-51.1,35.82,1.67,-253,38,300,L
-52.83,35.82,-0.13,223,98,-42,L
-54.75,35.17,-1.94,-202,-133,-224,L
-56.82,34.59,-2.54,79,-173,-159,L
-60.94,28.58,7.4,-223,62,66,L
-61.27,29.29,6.09,-135,151,41,L
-62.17,31.71,2.78,-35,3,-163,L
-62.05,32.67,1.79,-156,318,-242,L
-61.94,33.41,0.86,185,-52,317,L
-62.01,33.98,-0.01,-219,-294,-31,L
-64.5,32.77,-3.89,-95,-61,187,L
-64.42,32.31,-2.73,122,70,58,L
-64.25,31.91,-1.48,-211,79,-17,L
-64.19,31.67,-0.11,262,322,262,L
-63.77,29.54,6.75,-304,-162,76,L
-60.23,35.94,2.79,-67,171,-26,L
-59.61,36.43,2.16,-258,29,156,L
-58.85,36.81,1.76,-23,-73,142,L
-57.05,37.67,0.51,108,-181,4,L
-56.8,37.51,0.19,5,-134,-19,L
-56.35,37.04,0.05,-54,263,110,L
-63.34,29.44,12.67,216,-193,-142,L
-63.96,29.84,14.94,-291,261,-291,L
-63.84,30.02,15.59,296,206,-265,L
-63.54,29.99,15.98,286,-254,-120,L
-62.91,29.69,16.02,-70,1,-269,L
-62.88,38.69,-1.7,8,-198,91,L
-63.61,38.24,-2.95,-41,312,264,L
-64.46,37.99,-3.52,-282,28,111,L
-65.45,37.77,-3.93,243,-243,-13,L
-66.32,37.59,-4.13,166,-73,-133,L
-67.79,36.97,-3.42,-209,242,46,L
-66.78,33.16,10.88,-198,-72,-177,L
-66.58,33.83,10.32,-135,-300,-115,L
-64.77,35.57,8.26,-24,-64,319,L
-64.0,35.92,7.62,220,162,133,L
-74.28,37.91,-5.09,171,265,225,L
-74.58,37.53,-4.54,297,-185,-288,L
-74.81,36.89,-3.85,-207,151,-73,L
-75.18,36.01,-2.88,-228,103,-6,L
-75.66,35.08,-1.55,200,300,-109,L
-76.13,34.26,0.04,-170,-158,317,L
-76.4,33.47,1.74,-23,-141,64,L
-75.92,31.27,5.27,-238,232,103,L
-69.3,37.36,4.76,6,215,172,L
-69.02,37.49,5.13,100,-98,-94,L
-69.13,37.98,5.24,-142,-52,-254,L
-69.0,38.25,5.39,107,268,-224,L
-151.71,14.51,-3.6,-22,-148,-65,S
-146.26,19.09,2.53,-249,310,-18,S
-146.38,17.81,1.27,201,-318,-216,S
-147.6,16.34,0.12,-86,76,-89,S
-150.27,17.29,6.15,219,-181,206,S
-151.9,22.97,14.67,-303,-264,-229,S
-152.52,23.5,16.09,-285,232,286,S
-152.98,23.89,17.04,-104,-19,-323,S
-148.6,10.23,-9.21,-47,325,239,S
-148.68,9.93,-8.8,0,30,-34,S
-149.72,9.63,-8.96,-8,-103,90,S
-153.76,25.56,17.3,205,-118,285,S
-153.31,25.82,17.46,159,-216,-132,S
-152.52,25.92,17.28,181,-232,45,S
-144.31,15.02,-9.58,-222,-242,149,S
-144.23,15.5,-7.27,-318,130,248,S
-144.63,15.78,-6.02,-290,-158,-231,S
89.36,-228.36,12684040.61,-145,16,0,S
-141.93,28.94,10.23,302,230,294,S
-141.57,30.68,11.36,217,-36,-7,S
-142.34,32.01,12.72,-93,157,-167,S
-142.32,32.45,13.32,-247,48,-274,S
-141.52,32.78,13.83,-225,-116,176,S
-139.83,32.94,14.35,-119,-252,38,S
-137.31,33.01,15.03,60,-280,-16,S
42.34,-37.75,34.61,20,-175,243,S
49.37,-46.3,28.13,323,-161,142,S
52.88,-50.37,24.71,-257,-324,0,S
59.04,-57.15,19.08,118,322,59,S
61.75,-59.74,16.75,68,257,-147,S
100.66,-61.63,-17.06,261,-110,-300,S
101.07,-61.7,-17.56,327,-151,319,S
101.91,-61.89,-18.49,-290,304,-272,S
104.24,-62.76,-20.52,141,-287,-323,S
104.26,-62.66,-20.59,80,-268,311,S
104.28,-62.59,-20.66,-3,-239,316,S
104.3,-62.56,-20.71,-89,-233,311,S
104.56,-62.36,-21.05,-59,322,165,S
107.15,-64.22,-22.76,-204,-21,207,S
107.73,-64.57,-22.94,87,-22,299,S
107.95,-64.79,-22.95,244,-22,-265,S
108.26,-65.34,-22.82,-290,58,-27,S
108.51,-65.77,-22.67,288,71,99,S
104.55,-71.53,-15.7,-184,256,-273,S
102.52,-72.3,-13.87,31,194,179,S
100.53,-72.31,-12.39,-135,-116,29,S
98.45,-72.08,-10.87,-20,-224,103,S
95.89,-71.34,-8.93,75,-289,-252,S
95.6,-71.39,-8.49,-167,104,-164,S
5.86,2.16,86.68,-94,175,43,S
-64.73,18.07,68.45,-192,307,-231,S
-110.67,27.96,45.24,-312,89,102,S
-117.77,29.57,40.36,183,-154,-27,S
-149.2,9.19,5.7,226,-152,-60,S
-149.69,9.8,6.12,-243,-238,327,S
-149.98,10.41,6.42,-15,-128,-131,S
-150.0,10.96,6.45,262,160,-57,S
-153.77,13.34,1.72,296,-48,-90,S
-153.47,13.8,1.8,237,267,166,S
-153.46,14.17,1.89,233,-3,-272,S
-153.61,14.41,1.87,152,-88,142,S
-147.49,17.13,5.25,-9,75,4,S
-147.24,17.78,4.75,241,-276,-53,S
-153.22,13.77,-2.36,-8,-255,-182,S
-153.86,13.47,-3.22,262040,-146,18,S
-154.58,13.06,-3.84,39,11,184,S
-158.22,11.58,-3.47,-311,-183,-140,S
-158.72,11.34,-3.21,73,-285,127,S
-152.69,15.77,-1.52,-130,121,131,S
-159.67,11.71,-2.54,205,143,255,S
-162.73,16.87,12.66,274,257,-260,S
-161.55,16.04,14.91,-187,-2,-268,S
-159.71,14.89,13.86,-87,300,263,S
-164.02,6.66,-10.2,161,-204,182,S
-162.71,7.16,-11.05,105,-264,-169,S
-60.16,33.97,3.1,-231,-98,139,S
-59.54,33.83,3.84,-228,51,16,S
-59.0,33.84,4.54,-42,-15,-247,S
-58.46,33.76,5.26,-152,5,289,S
-57.88,33.6,5.97,88,56,-88,S
-57.46,33.5,6.52,295,36,94,S
-57.46,33.67,6.83,94,-55,297,S
-57.96,34.2,7.05,-42,-157,240,S
-58.71,34.92,7.1,-202,-286,-88,S
-71.5,41.39,2.99,302,-317,101,S
-71.87,43.22,3.73,-143,254,77,S
-72.07,45.4,4.62,26,144,210,S
-72.1,47.79,5.61,230,-167,-198,S
-72.06,50.28,6.74,-118,49,-252,S
-72.02,52.75,8.03,-305,69,-302,S
-71.77,54.94,9.6,35,186,98,S
-71.04,56.64,11.59,116,76,-195,S
-69.8,57.86,13.98,113,-283,-232,S
83.64,-51.33,-13.89,171,41,-59,S
96.4,-50.59,-23.94,-78,-202,188,S
97.51,-51.36,-24.27,83,-179,-250,S
98.43,-52.36,-24.53,176,319,-323,S
99.03,-53.26,-24.73,197,-308,163,S
74.02,-60.81,-10.08,275,63,210,S
74.71,-61.01,-12.0,-252,315,-12,S
74.72,-60.94,-12.41,-79,-176,-16,S
76.63,-57.8,-16.61,151,142,-46,S
77.05,-58.17,-16.48,-233,0,-308,S
77.35,-58.53,-16.32,53,-280,68,S
77.37,-58.79,-16.12,277,46,-91,S
77.1,-58.9,-15.92,-309,-255,-35,S
94.5,-64.53,-21.37,-106,-287,-177,S
95.28,-64.33,-21.75,0,-273,227,S
95.78,-63.94,-22.13,-56,-12,-194,S
100.17,-63.95,-23.21,66,254,97,S
93.69,-64.28,-19.95,-240,-11,257,S
93.73,-63.92,-20.13,-209,-228,257,S
92.44,-61.97,-20.78,-81,-261,266,S
91.89,-62.08,-20.44,-47,-92,71,S
84.16,-57.81,-19.43,262,-160,191,S
83.04,-57.17,-19.14,324,305,246,S
82.82,-56.77,-19.17,77,-50,130,S
82.83,-56.13,-19.57,190,-77,-297,S
83.02,-56.12,-19.76,-27,-280,-134,S
-83.79,-82.04,7.43,-96,158,210,S
-89.91,-81.06,8.69,173,222,72,S
-87.92,-79.56,9.77,38,-230,-199,S
-87.16,-79.05,10.08,75,-158,-241,S
116.98,61.57,26.17,-234,251,19,S
113.51,66.22,23.07,52,-243,-179,S
105.39,73.53,15.84,264,-213,322,S
102.62,75.61,13.41,-249,326,242,S
102.54,76.09,13.31,-39,-289,159,S
119.59,60.36,28.83,29,230,267,S
138.29,35.36,48.98,-8,-162,0,S
143.15,28.15,54.49,28,222,-195,S
76.68,-58.53,-8.14,210,143,119,S
78.65,-59.09,-8.04,138,191,313,S
84.16,-62.5,-6.56,154,255,46,S
85.4,-63.77,-5.74,210,-40,180,S
86.29,-64.81,-4.73,57,247,25,S
86.9,-65.51,-3.59,262,-46,98,S
73.82,-64.89,20.77,-36,249,-292,S
71.11,-63.54,23.4,101,-58,-178,S
70.57,-63.43,23.87,-260,-66,21,S
70.48,-63.7,23.92,318,-8,85,S
63.79,-60.51,28.78,167,232,-29,S
64.81,-60.98,28.02,-259,-108,177,S
65.64,-61.24,27.36,314,-147,107,S
66.18,-61.61,26.71,-59,-245,-165,S
66.95,-62.69,25.64,-326,-255,-178,S
68.25,-64.56,23.99,70,234,-47,S
119.0,-52.29,23.68,-79,241,132,S
123.56,-47.24,26.6,62,-125,281,S
127.28,-41.8,29.55,-210,45,-25,S
131.38,-29.84,34.05,-122,-136,-231,S
133.4,-2.26,35.08,-222,-88,-142,S
113.97,67.13,21.66,-34,-259,83,S
115.64,65.44,23.25,296,223,140,S
116.59,64.44,24.17,-28,38,-77,S
116.9,64.11,24.4,30,-34,-289,S
116.83,64.21,24.19,302,255,60,S
116.32,64.8,23.56,-219,-196,87,S
115.36,65.83,22.67,24,-158,68,S
174.25,-27.91,45.56,-25,18,-284,S
-179.9,-36.86,41.77,38,79,-155,S
-168.95,-72.17,15.43,-192,-162,263,S
89.93,-78.34,-3.28,-78,265,-229,S
90.13,-78.69,-3.01,11,286,20,S
90.98,-78.55,-2.79,45,-102,314,S
-167.26,17.17,-1.34,-121,-284,-202,R
-168.41,16.2,-1.36,-44,176,103,R
-169.34,15.07,-1.44,94,131,-38,R
170.53,1.43,-14.6,8,153,-14,R
171.28,1.61,-14.94,40,-265,268,R
172.11,1.72,-15.38,127,-106,87,R
172.86,1.77,-15.66,316,84,116,R
173.53,1.88,-15.57,-141,-167,-310,R
174.16,2.13,-15.17,134,38,-222,R
174.74,2.53,-14.54,-233,-59,209,R
175.25,3.08,-13.63,-44,284,-293,R
175.63,3.77,-12.42,19,-102,-312,R
-179.68,24.34,5.28,232,-286,-142,R
-179.69,25.28,4.55,118,91,99,R
-179.11,25.9,3.7,78,2,-17,R
-177.97,26.04,2.61,-263,-285,168,R
-176.63,25.89,1.47,-189,-77,13,R
-175.54,25.88,0.56,-153,-271,-305,R
-175.12,26.41,0.03,65,-276,198,R
-175.5,27.34,-0.22,-192,154,292,R
-176.5,28.24,-0.21,223,259,88,R
58.32,-5.79,50.83,324,-290,-31,R
59.67,-13.01,46.59,227,-272,-105,R
62.07,-19.61,42.13,61,283,-150,R
65.69,-26.32,36.75,317,-14,-182,R
69.91,-33.37,30.3,18,252,-25,R
74.02,-40.26,23.6,-227,11,-129,R
76.94,-45.57,18.01,-195,-62,324,R
78.73,-48.84,13.91,-265,-81,-106,R
80.49,-51.05,10.91,77,-228,258,R
105.05,-69.75,-7.75,-271,-324,-206,R
105.18,-69.79,-7.95,217,242,-298,R
105.42,-69.75,-8.25,51,128,302,R
105.79,-69.65,-8.66,-54,23,308,R
106.3,-69.43,-9.19,-91,-127,-316,R
106.93,-69.09,-9.8,-72,-308,-258,R
107.68,-68.63,-10.47,28,174,-151,R
108.45,-68.15,-11.13,161,50,-6,R
109.21,-67.69,-11.74,247,40,202,R
115.3,-59.99,-22.56,167,248,23,R
114.82,-60.49,-21.84,-32,202,-121,R
114.37,-60.92,-21.08,-270,165,-180,R
113.98,-61.25,-20.33,74,230,-98,R
113.64,-61.5,-19.64,-204,321,-36,R
113.33,-61.65,-19.01,278,-238,-29,R
113.01,-61.73,-18.39,201,-135,-38,R
112.62,-61.77,-17.74,172,-30,-64,R
112.22,-61.77,-17.08,137,82,-93,R
129.17,-47.84,-30.86,50,-232,-26,R
129.62,-47.54,-31.01,-11,24,92,R
130.04,-47.37,-31.12,-53,312,196,R
130.35,-47.49,-31.19,252,-118,190,R
130.63,-47.92,-31.24,-146,-177,-70,R
130.96,-48.47,-31.31,-95,193,169,R
131.41,-48.98,-31.47,-303,-268,287,R
131.89,-49.33,-31.62,12,29,-241,R
132.22,-49.55,-31.74,308,-141,49,R
109.52,-55.32,-26.87,-142,280,-40,R
108.14,-55.16,-26.36,-189,-250,-213,R
106.72,-54.82,-25.87,-185,-60,-307,R
105.21,-54.3,-25.36,-128,204,292,R
103.54,-53.65,-24.81,56,-151,237,R
101.55,-52.97,-24.09,-309,257,58,R
99.26,-52.43,-23.1,-42,76,-156,R
96.9,-52.11,-21.89,78,-209,259,R
94.67,-51.99,-20.47,6,-5,86,R
100.86,-65.13,-8.23,-115,-120,258,R
100.57,-66.21,-8.87,87,42,-157,R
100.12,-67.04,-9.32,203,-325,-51,R
99.65,-67.66,-9.63,157,61,-210,R
99.31,-68.08,-9.89,-30,-99,-188,R
99.29,-68.26,-10.32,-248,-58,-162,R
101.62,-69.9,-12.79,-214,-23,101,R
72.05,-62.14,19.78,-172,-147,238,R
66.91,-59.21,24.76,-88,98,253,R
-34.89,55.56,27.56,-102,245,250,R
-36.36,56.01,27.58,281,194,-256,R
-32.8,42.32,45.18,29,116,-158,R
-14.89,21.4,67.11,138,-188,262,R
-10.06,15.66,72.84,-38,-274,8,R
134.65,-45.5,-44.37,-246,-229,-206,R
136.23,-44.19,-45.73,-327,-283,266,R
136.61,-44.04,-45.88,239,13,275,R
136.57,-44.55,-45.31,302,-191,257,R
136.26,-45.5,-44.27,-100,165,127,R
135.81,-46.64,-43.02,-87,-35,184,R
134.73,-49.61,-39.8,147,-165,-191,R
147.9,-59.33,-28.64,-36,94,274,R
156.91,-59.01,-28.02,-7,324,-231,R
154.86,-59.47,-29.28,-33,83,-79,R
115.79,-67.11,-22.74,-98,-112,248,R
113.77,-68.5,-21.36,-23,-214,-3,R
112.12,-69.78,-20.08,-109,326,8,R
110.87,-70.78,-19.05,-283,-29,7,R
107.37,-73.57,-16.27,270,40,-252,R
42.3,-41.44,47.49,66,22,-22,R
19.54,-19.15,69.26,-284,65,-175,R
14.47,-13.82,73.41,-95,-53,-30,R
9.42,-8.52,76.85,-317,-53,280,R
4.14,-2.94,78.9,-193,-37,257,R
-44.71,57.1,22.71,-313,210,-209,R
-43.12,56.24,23.56,-108,283,270,R
-47.13,58.68,23.96,262,28,264,R
16.97,-19.76,68.55,234,13,-59,R
23.63,-27.0,61.16,36,-319,267,R
133.13,-47.15,-42.85,-320,-18,-181,R
133.65,-47.52,-42.44,-270,-320,260,R
-74.23,-37.5,49.86,-121,-234,-316,S
-54.59,-42.28,42.96,182,-297,-187,S
-40.75,-46.27,36.82,307,-218,249,S
-29.19,-49.56,31.23,197,-164,209,S
-18.44,-52.4,25.95,226,-79,-35,S
-7.51,-55.31,21.11,-219,156,295,S
4.71,-58.55,16.89,-30,-56,-96,S
17.29,-61.61,13.41,-211,142,-78,S
28.77,-64.11,10.52,177,-99,-137,S
98.2,-64.97,-13.94,191,-232,-175,S
98.65,-65.22,-13.91,-268,-102,-20,S
98.88,-65.42,-13.77,-147,124,167,S
97.79,-66.32,-11.78,82,-47,-29,S
94.88,-72.54,-4.23,-170,-283,-286,S
93.93,-72.33,-3.69,-39,-204,84,S
92.99,-71.91,-3.09,-49,-4,-80,S
88.53,-69.18,-11.26,204,-152,-256,S
87.98,-68.61,-11.53,-96,-261,92,S
85.24,-67.59,-11.62,-52,-119,183,S
83.89,-67.62,-11.38,-30,-38,84,S
55.44,-67.39,-10.83,259,-236,260,S
55.69,-66.97,-11.15,206,-32,-316,S
55.82,-66.51,-11.35,146,193,-174,S
55.79,-66.1,-11.44,49,-144,63,S
20.26,-22.41,67.34,-204,-222,-14,S
10.8,-12.96,76.66,53,-300,-259,S
0.55,-2.98,85.31,291,306,-119,S
-4.1,1.5,85.85,-274,-248,-169,S
-8.27,5.57,83.15,282,-55,-104,S
-62.25,57.13,32.08,157,187,-9,S
-62.89,57.71,31.45,58,1,250,S
-63.36,58.25,30.9,17,-200,91,S
-65.87,61.44,27.76,-8,-64,197,S
-67.16,62.93,26.27,198,-50,-123,S
-68.31,64.37,24.87,-51,7,69,S
-69.26,65.7,23.64,-82,77,209,S
-99.24,79.64,-10.1,215,31,193,S
-121.22,53.6,-31.03,-304,141,208,S
-123.45,50.46,-29.3,84,-20,-63,S
-108.3,56.77,-13.12,66,-222,-327,S
-108.72,58.2,-15.95,132,-233,117,S
-109.17,58.89,-18.47,309,-148,96,S
-107.53,58.26,-22.31,-251,-253,135,S
-105.66,59.63,-21.82,-210,323,97,S
-121.19,51.01,-30.71,64,302,176,S
-120.51,52.35,-23.26,47,-154,-49,S
-123.11,54.11,-10.61,28,183,58,S
-97.21,71.38,-7.96,200,132,-157,S
-94.94,71.82,-7.46,91,-237,275,S
-92.22,72.98,-6.16,34,29,-130,S
-87.21,79.1,-1.26,-201,-264,-131,S
-86.05,79.9,-0.04,207,259,287,S
-85.33,80.05,0.56,-98,-283,-84,S
-129.72,55.4,-3.89,96,107,-67,S
-131.56,56.59,-1.07,170,-241,-163,S
-133.88,58.06,1.59,140,142,-309,S
-136.74,59.63,4.04,-30,-143,-119,S
-141.49,61.2,16.43,60,-290,-46,S
-82.98,64.59,-3.08,149,-185,324,S
-76.1,67.29,2.39,199,49,316,S
-74.37,66.2,2.79,179,291,64,S
-72.96,65.11,3.02,-200,56,-262,S
-71.97,64.54,3.28,62,228,-170,S
-71.54,64.54,3.53,-37,93,-170,S
-129.0,53.65,-3.07,57,-296,190,S
-130.13,55.86,-0.05,78,287,310,S
-136.87,62.44,7.9,-204,-111,-50,S
-137.92,63.43,11.13,-126,4,160,S
-135.11,62.7,14.84,312,-55,-79,S
-89.2,72.67,-6.87,-84,229,296,S
-87.69,73.64,-5.43,187,90,-306,S
-87.05,74.06,-4.77,141,-324,-205,S
-93.28,54.97,29.73,293,-194,-46,S
-92.13,55.16,28.6,9,57,-59,S
-92.05,55.11,27.03,-90,-161,-219,S
-92.14,54.95,25.12,37,190,-129,S
-91.7,55.07,22.99,109,282,224,S
-88.4,56.99,16.18,182,-109,104,S
-88.38,57.49,13.41,279,-100,-279,S
-102.78,60.32,-18.89,110,315,153,S
-106.98,57.08,-20.52,-240,303,-124,S
-109.67,57.12,-10.47,16,277,58,S
-109.86,57.11,-7.67,247,-170,-174,S
-92.28,56.43,12.58,140,51,-42,S
-93.03,58.41,8.98,-237,37,144,S
-93.93,60.53,5.3,222,-158,89,S
-95.48,62.89,-1.01,154,-305,251,S
-95.51,63.7,-3.2,-54,137,-109,S
-17.95,-78.2,-2.2,-176,66,-291,S
-9.07,-78.66,-1.14,-292,102,-177,S
2.92,-78.8,0.1,193,-143,68,S
15.71,-78.68,1.44,-165,116,-203,S
27.09,-78.62,2.92,-6,62,296,S
36.98,-78.7,4.46,255,-159,-93,S
45.35,-78.79,5.95,261,-312,-177,S
61.98,25.49,55.32,-118,82,79,S
68.59,39.58,42.72,-93,165,-107,S
-89.97,70.97,15.51,-137,-180,150,S
-44.26,57.61,31.36,-95,165,114,S
-54.27,61.46,27.91,197,-261,-214,S
-58.77,62.67,16.81,184,-322,151,S
-65.58,68.86,20.7,157,213,-304,S
-72.13,73.95,14.04,-186,293,87,S
-76.48,76.21,10.87,88,-242,-103,S
-79.01,76.77,8.77,-123,206,-157,S
-84.16,73.88,8.9,-243,43,270,S
5.66,42.65,29.52,211,-322,-309,S
6.55,42.47,30.17,224,314,237,S
-90.2,79.08,5.05,-133,-234,130,S
-91.03,71.43,12.59,40,-33,113,S
6.77,41.51,30.28,292,252,269,S
-3.66,44.98,33.82,119,-311,-119,S
-92.53,77.03,7.57,-30,7,86,S
-87.84,64.37,17.02,-302,-226,-6,S
-49.06,56.46,31.88,-306,-188,-290,S
-91.78,65.67,16.66,-188,-205,-246,S
-89.45,65.4,17.1,81,-11,-149,S
-85.11,65.02,17.19,242,323,48,S
-80.9,65.87,16.7,199,-306,237,S
-78.38,66.16,16.82,-194,208,-325,S
-75.64,66.02,17.26,17,-305,31,S
-55.76,59.5,30.08,-56,77,262,S
-71.02,70.51,19.45,-54,-222,153,S
-73.46,73.16,16.82,310,279,-316,S
-75.68,75.74,14.26,-131,-57,-82,S
-77.79,77.8,12.0,83,-146,-270,S
-78.85,69.52,11.57,-117,-99,134,S
-76.39,70.03,12.14,-219,56,-116,S
-71.17,70.33,14.12,322,25,101,S
-54.85,63.65,22.2,-205,-14,-265,S
-48.96,61.22,23.62,267,-308,283,S
-89.81,88.75,0.55,29,-262,318,S
-90.71,87.22,0.4,-51,61,-224,S
-91.38,85.58,0.75,-40,-150,-112,S
-92.53,84.22,0.82,146,165,199,S
-12.25,10.48,77.78,-15,24,239,S
-7.42,4.6,79.11,20,-208,-303,S
-2.13,-1.65,76.89,-5,35,-253,S
3.8,-8.35,72.57,261,87,-35,S
10.42,-15.47,67.22,197,-279,239,S
17.47,-22.71,61.4,293,-186,254,S
24.52,-29.71,55.32,-246,-315,316,S
128.83,-49.52,-40.19,-258,21,-233,S
127.9,-51.18,-38.78,54,-291,257,S
128.45,-51.28,-38.72,33,-17,197,S
145.87,-57.18,-32.59,-35,70,-125,S
136.1,-57.55,-32.29,212,324,-134,S
122.66,-58.7,-31.29,222,-1,-141,S
121.24,-59.08,-30.92,55,244,-295,S
111.67,-67.06,-22.84,-77,-5,-153,S
111.31,-67.59,-22.32,-144,269,32,S
111.21,-67.96,-21.98,-133,-126,236,S
111.27,-68.22,-21.75,14,179,-86,S
111.36,-68.46,-21.53,296,-74,-302,S
111.37,-68.73,-21.27,-135,-250,103,S
111.34,-68.97,-21.01,-77,162,-278,S
111.32,-69.16,-20.8,-67,-216,-195,S
111.31,-69.33,-20.6,-112,-78,-166,S
115.65,-66.43,-20.7,-22,-128,-30,S
116.09,-66.13,-20.34,-28,195,-132,S
116.61,-65.64,-19.86,81,-5,-133,S
117.25,-64.91,-19.29,254,-18,-178,S
118.01,-63.93,-18.78,-139,234,310,S
118.77,-62.93,-18.31,-323,-139,152,S
119.17,-62.3,-17.63,-326,119,188,S
119.03,-62.3,-16.69,62,-145,47,S
118.62,-62.68,-15.75,59,187,-294,S
115.67,-66.8,-17.0,13,-17,-10,S
115.34,-67.29,-16.92,-225,-4,-101,S
115.05,-67.7,-16.85,273,8,-236,S
114.69,-68.12,-16.72,167,118,265,S
114.29,-68.51,-16.64,69,309,151,S
112.95,-69.71,-16.76,-132,90,-47,S
126.48,-5.63,51.03,-214,-13,292,S
130.07,0.48,55.94,-289,227,66,S
133.09,6.7,59.79,-200,-229,19,S
135.37,13.15,61.87,260,-148,-264,S
137.18,19.7,61.95,-289,71,-161,S
103.25,28.79,-25.0,-207,298,88,S
101.91,28.68,-25.11,-185,-19,98,S
100.46,29.04,-24.21,201,-36,-223,S
94.41,37.57,-13.88,34,-185,221,S
104.48,44.53,-3.37,-149,-23,162,S
100.77,42.61,-9.65,-157,-125,143,S
99.74,42.24,-11.35,101,-314,223,S
99.32,41.72,-12.92,-312,-285,246,S
99.56,40.56,-15.01,260,195,-275,S
99.88,39.25,-17.73,-178,-41,-137,S
99.89,38.38,-20.07,312,115,293,S
90.48,48.68,172.52,209,-2231,-7,S
99.53,59.4,12.66,-240,-86,-45,S
86.4,38.34,-24.57,196,-58,-226,S
86.0,38.73,-27.06,-233,54,-21,S
83.66,39.52,-36.06,-190,140,-85,S
81.53,36.32,-42.19,55,-223,-151,S
84.14,35.85,-39.9,-5,-297,183,S
86.44,37.14,-36.47,-95,-208,-164,S
92.27,50.24,-5.2,-224,100,263,S
93.55,50.73,-1.63,32,-102,-49,S
95.28,51.84,2.2,289,59,188,S
99.49,55.36,9.73,120,200,-33,S
101.44,60.12,15.06,194,-301,29,S
102.35,62.79,17.02,-299,173,-317,S
89.35,36.43,-22.56,-303,-15,282,S
89.05,34.95,-24.5,20,-5,222,S
89.76,34.26,-30.45,-213,142,-245,S
90.8,34.89,-32.23,90,35,-320,S
91.63,35.5,-31.68,183,-143,-215,S
91.82,36.27,-29.62,-222,192,-9,S
91.71,37.59,-26.94,29,236,6,S
87.35,35.26,-27.41,304,-32,1,S
103.11,50.99,8.0,91,-92,263,S
99.8,47.97,-1.5,-98,72,-11,S
95.07,33.53,-32.36,-145,-129,16,S
94.39,34.58,-31.54,275,-271,-80,S
93.63,35.97,-30.4,204,152,-137,S
92.68,37.84,-28.92,-103,-299,-46,S
91.54,39.86,-27.41,-48,236,-37,S
90.28,41.72,-24.28,11,-201,-85,S
106.92,46.26,-0.87,29,-120,303,S
105.12,45.08,-3.78,251,230,52,S
100.47,41.45,-10.63,74,-279,157,S
100.09,40.54,-12.44,41,-76,45,S
-113.88,41.78,-9.78,-213,-87,-225,L
-115.47,42.12,-6.68,-72,-158,5,L
-116.07,43.71,-2.95,-164,12,-215,L
-115.66,45.83,1.2,-144,183,266,L
-115.05,47.61,5.37,96,-288,195,L
-114.96,48.88,9.42,-205,68,-173,L
-115.47,49.8,13.26,101,-30,265,L
-116.1,50.39,16.93,291,81,-34,L
-115.92,50.54,20.62,260,-131,-293,L
-78.71,77.28,9.11,105,-56,-197,L
-73.15,72.98,17.0,-173,121,75,L
-64.82,61.01,27.28,-71,-260,296,L
-54.64,48.48,38.49,-208,156,-269,L
-45.87,38.73,47.06,-81,-316,-199,L
-35.61,15.64,36.78,244,-154,66,L
110.55,-61.0,-27.83,-132,-277,-160,L
110.0,-61.72,-27.14,-38,-113,275,L
109.57,-62.53,-26.39,96,123,211,L
114.36,-62.31,-27.47,243,27,42,L
115.6,-62.36,-27.56,241,-109,-77,L
69.1,-77.06,-11.8,-70,309,234,L
63.1,-77.72,-11.07,190,122,195,L
14.3,-79.96,-7.23,239,-216,188,L
0.91,-80.45,-6.54,-238,264,186,L
-12.89,-80.82,-6.11,111,87,-36,L
-58.88,-72.44,-14.07,-321,259,53,L
-59.58,-72.15,-14.29,-88,104,82,L
-59.23,-71.92,-14.42,-88,33,15,L
-57.42,-71.11,-14.67,-193,-155,-54,L
-52.37,-70.69,-16.09,-99,-277,152,L
-52.02,-70.49,-16.5,156,162,290,L
-50.48,-69.63,-17.82,-208,271,-145,L
-49.46,-69.0,-18.69,-155,-58,-307,L
74.0,-61.63,-28.15,-189,170,285,L
77.91,-61.55,-28.14,321,308,-37,L
81.87,-61.58,-28.04,304,-319,121,L
85.27,-61.69,-27.88,-292,288,72,L
87.71,-61.9,-27.6,-257,219,-89,L
91.01,-62.66,-26.65,-172,78,-318,L
92.8,-63.5,-25.51,-68,-166,78,L
99.16,-65.55,-20.31,-59,122,158,L
99.69,-65.51,-20.46,169,178,-282,L
100.47,-65.33,-20.97,11,-238,-279,L
100.92,-64.91,-21.7,194,166,-207,L
100.95,-64.85,-21.87,219,299,-24,L
93.05,-60.69,-22.99,-292,297,-32,L
92.77,-60.51,-22.96,-217,-220,-113,L
92.49,-60.36,-22.87,-176,-137,-189,L
92.07,-60.12,-22.57,-292,321,-134,L
91.76,-59.98,-22.41,-322,90,-119,L
79.16,-63.86,-16.17,-24,-258,-155,L
78.71,-64.01,-15.58,-21,-162,262,L
77.6,-63.68,-14.58,170,-277,-69,L
87.89,-68.39,-15.74,22,-187,-220,L
88.93,-72.7,-13.46,-64,-128,-269,L
88.81,-76.21,-10.89,255,238,293,L
89.65,-80.4,-7.93,189,285,111,L
100.98,-80.23,4.28,251,198,-79,L
99.4,58.98,10.42,-19,-4,272,L
99.02,58.18,12.57,-140,13,287,L
99.11,58.67,13.93,153,-309,240,L
101.02,63.71,17.26,157,-220,214,L
102.48,65.42,18.42,-294,273,270,L
131.05,50.66,38.67,-24,286,237,L
137.64,44.26,43.01,-3,99,-210,L
144.24,36.19,47.52,269,144,-265,L
176.77,-15.37,55.7,-213,247,326,L
80.93,-76.22,4.22,-123,9,-83,L
81.23,-76.58,4.95,-11,68,66,L
81.48,-76.89,5.55,82,289,207,L
81.77,-77.23,5.97,280,159,217,L
93.0,-76.52,4.52,80,-189,-98,L
91.23,-63.26,0.54,63,153,-22,L
91.08,-63.61,1.08,-148,-148,-204,L
88.66,-60.68,11.79,278,205,-240,L
87.85,-60.84,12.55,-72,12,-272,L
86.77,-61.28,13.39,-277,-294,23,L
83.97,-63.12,15.65,324,-65,218,L
83.27,-63.47,15.89,-26,44,-72,L
81.44,-63.41,16.11,211,-148,160,L
128.85,54.1,33.7,91,-35,319,L
155.5,14.66,54.13,-263,315,-290,L
161.59,4.21,57.29,-308,-99,263,L
168.44,-7.8,57.35,-134,-17,193,L
41.36,-48.27,-18.31,-300,182,264,L
61.99,-52.51,-12.04,-250,-199,-14,L
73.28,-55.07,-8.47,318,-220,-154,L
95.07,-67.23,0.15,-84,-296,36,L
99.4,-67.03,-0.36,0,-228,34,L
100.61,-66.93,-0.61,113,-6,116,L
101.63,-67.17,-1.03,48,-308,-265,L
103.9,-68.16,-2.65,-222,-46,150,L
105.05,-68.72,-3.75,285,-89,-238,L
68.91,-62.57,14.89,-88,81,327,L
66.71,-62.39,15.74,-231,-129,-151,L
64.64,-62.26,16.61,219,-193,-1,L
62.74,-62.15,17.45,-44,-256,199,L
61.1,-62.07,18.15,272,199,-197,L
143.03,-10.91,38.73,42,75,213,L
140.6,3.36,38.01,-269,-220,-298,L
139.26,10.48,36.67,151,-65,-127,L
137.72,17.36,35.41,-217,-79,-121,L
116.42,67.45,20.09,-41,246,141,L
117.83,66.37,20.34,261,-312,-163,L
118.69,65.6,20.7,-298,-35,-257,L
118.21,65.88,20.89,-51,-268,250,L
117.24,66.5,20.97,37,134,-245,L
114.72,68.06,20.82,-22,112,22,L
164.03,-42.77,30.19,-134,-95,-69,L
161.05,-60.72,23.49,194,-132,90,L
155.76,-66.83,20.0,150,-231,-130,L
137.14,-72.58,16.19,-85,308,-186,L
95.2,-69.01,-5.38,17,195,128,L
96.21,-70.01,-5.39,154,-287,153,L
96.36,-70.57,-5.26,-190,159,-200,L
96.33,-71.24,-5.04,35,-148,85,L
94.8,-73.88,-3.16,52,-18,-217,L
104.6,-75.62,-6.94,177,3,237,L
104.72,-73.97,-6.7,75,-15,-11,L
102.29,-72.61,-4.51,-173,106,-285,L
101.62,-72.96,-3.87,319,171,-14,L
85.54,-81.77,2.84,19,314,37,L
85.06,-82.56,3.19,188,313,218,L
84.76,-83.42,3.5,-241,-180,-283,L
84.16,-84.74,4.62,-231,291,-121,L
83.84,-83.92,6.08,259,-92,11,L
138.43,26.58,36.18,285,-167,-227,L
137.14,31.49,35.57,7,-162,271,L
135.62,36.1,35.0,210,286,-33,L
133.8,40.45,34.59,-158,-322,302,L
117.08,64.86,24.93,54,57,18,L
115.62,65.06,24.92,257,31,187,L
114.22,65.15,24.83,-269,186,177,L
112.99,65.2,24.65,-76,-201,-41,L
112.01,65.31,24.37,-231,79,-93,L
101.0,-78.67,-9.79,-180,261,-274,S
100.86,-78.72,-9.73,325,78,304,S
100.75,-78.77,-9.7,264,-76,91,S
100.66,-78.84,-9.7,218,-174,-55,S
100.64,-78.88,-9.77,205,-182,-85,S
100.66,-78.89,-9.86,-315,-37,-193,S
100.69,-78.89,-9.93,-77,140,-310,S
117.63,44.21,41.46,110,171,107,S
110.56,-70.68,-19.0,221,138,-236,S
101.12,-75.21,-13.88,-46,87,-64,S
80.21,-72.76,-8.38,-138,-164,-142,S
100.17,-70.0,-12.97,-89,-191,72,S
98.64,-74.58,-9.33,-148,-252,199,S
97.61,-76.17,-7.97,-294,36,121,S
96.61,12.06,72.2,-271,9,-155,S
104.68,16.37,69.83,263,286,-4,S
115.77,24.19,63.9,-305,-251,304,S
119.88,52.69,36.26,-298,27,18,S
-22.35,-2.72,71.83,-102,3,240,S
-17.62,-8.41,67.35,-180,-255,-262,S
17.47,-38.03,43.59,145,-61,280,S
104.71,-70.86,-18.3,-123,56,303,S
100.34,-69.62,-18.67,-297,319,153,S
98.94,-71.28,-17.38,-148,-90,-269,S
85.97,-72.91,-11.78,226,212,27,S
84.77,-72.55,-11.52,-130,-192,305,S
83.19,-83.16,6.84,306,-110,173,S
81.12,-81.79,7.92,212,9,98,S
78.08,-79.7,9.14,175,153,31,S
73.74,-76.96,11.01,273,244,-297,S
68.9,-74.16,13.38,303,-220,217,S
64.68,-71.65,16.01,-206,-276,85,S
58.75,-67.03,21.57,105,269,289,S
130.93,38.77,50.76,-139,326,190,S
126.78,43.61,45.57,-262,21,-139,S
126.45,44.21,44.9,-307,146,-183,S
125.96,44.61,44.38,199,-186,-314,S
99.25,-68.52,-14.2,-152,222,-217,S
100.97,-68.93,-14.61,203,-87,167,S
98.45,-78.93,-10.62,283,247,245,S
104.98,-72.41,-16.44,17,118,-196,S
104.51,-73.07,-15.66,-161,-82,177,S
96.98,28.92,-29.65,232,98,-105,R
95.31,33.33,-26.02,272,-73,-58,R
94.92,37.63,-22.53,212,38,274,R
95.28,40.53,-18.8,-261,311,61,R
95.66,42.43,-14.73,154,-170,-125,R
95.91,44.71,-10.35,-202,191,71,R
96.56,48.03,-5.88,-243,220,-6,R
98.03,51.71,-1.53,-305,-220,-325,R
100.21,54.61,2.71,232,-68,166,R
118.69,49.5,-19.32,-210,-166,-314,R
119.85,52.68,-20.54,140,-289,-266,R
119.54,54.83,-22.18,149,-93,-202,R
118.02,54.79,-24.35,-118,253,168,R
117.74,52.95,-26.45,257,192,74,R
120.17,50.52,-28.14,-247,181,-73,R
123.82,48.06,-29.43,-133,72,-278,R
125.64,45.62,-30.17,305,-190,100,R
124.65,43.34,-30.47,-175,-107,-122,R
122.38,45.49,16.55,270,-192,96,R
123.68,45.03,17.06,-36,291,201,R
124.9,44.96,17.32,-14,160,209,R
126.02,44.8,16.48,111,-259,-321,R
126.99,44.26,14.67,-236,1,-200,R
127.84,43.42,12.61,-86,-120,-53,R
128.46,42.73,10.65,0,165,-205,R
128.75,42.67,8.81,155,11,0,R
128.63,43.22,7.1,37,317,87,R
146.17,59.68,27.76,163,-45,-200,R
142.28,61.67,26.6,76,-259,-106,R
137.67,62.88,26.19,-129,109,256,R
131.85,63.24,26.42,-300,324,273,R
122.61,62.92,27.05,318,-101,-57,R
106.05,62.02,27.89,-220,51,186,R
82.29,60.23,29.03,-205,-5,214,R
111.64,-61.26,-19.29,160,263,-196,R
115.64,-57.47,-23.64,18,-187,24,R
144.43,-48.67,-22.25,309,-29,23,R
148.34,-50.06,-20.16,311,120,307,R
148.83,-50.38,-19.69,-246,165,253,R
132.62,-55.79,-15.74,-273,149,-74,R
132.08,-51.08,-22.39,-152,-100,-240,R
120.22,-60.92,-16.48,-98,89,146,R
119.59,-60.77,-16.73,123,-60,-292,R
118.89,-60.42,-17.15,-5,113,-72,R
116.32,-59.19,-18.47,90,233,-200,R
113.72,-60.09,-18.57,11,127,187,R
80.82,-57.78,-2.93,-232,-112,-156,R
110.55,-68.32,-18.59,294,-47,-162,R
109.78,-68.81,-17.79,17,-55,-186,R
94.18,-71.78,-2.98,176,-118,-61,R
79.94,-64.48,12.16,56,173,21,R
75.42,-60.88,16.97,-152,-89,-170,R
70.7,-57.0,21.98,-79,24,125,R
-54.71,60.6,23.11,149,-209,323,R
-49.48,57.89,23.43,-257,-292,141,R
-47.25,56.38,24.2,-86,-165,-45,R
142.98,-52.23,36.52,-227,-166,184,R
156.07,-48.48,39.62,114,-78,-240,R
105.39,64.14,19.78,310,210,137,R
104.35,64.39,19.23,-18,-100,-197,R
103.62,65.78,18.79,-32,260,150,R
105.5,66.45,20.25,18,199,239,R
123.79,58.65,30.52,6,-19,-244,R
77.07,-70.54,-0.16,50,226,-273,R
76.62,-70.53,0.73,214,202,10,R
76.25,-70.55,1.63,276,26,-278,R
76.01,-70.57,2.45,208,-265,186,R
75.91,-70.61,3.13,77,34,-14,R
75.82,-70.58,3.69,7,-321,-279,R
75.68,-70.45,4.19,-1,97,130,R
75.54,-70.3,4.62,41,5,-83,R
75.43,-70.14,4.96,131,12,-276,R
79.3,-65.6,-0.24,-133,-31,53,R
80.0,-64.53,-3.01,287,-258,-75,R
80.21,-64.74,-3.97,216,-91,-70,R
80.93,-65.61,-7.45,-219,32,-118,R
90.5,-62.57,-19.96,226,-226,90,R
89.83,-61.92,-20.17,-249,305,258,R
88.94,-61.31,-20.31,-137,275,-91,R
87.93,-60.75,-20.42,-74,310,241,R
79.78,-55.21,-22.02,-187,133,-255,R
79.9,-55.44,-21.87,-101,-195,18,R
79.47,-55.33,-21.65,-117,326,270,R
78.17,-55.41,-20.93,211,-128,-193,R
78.06,-55.99,-20.6,58,129,301,R
87.82,-59.03,-19.54,186,256,-255,R
88.02,-58.85,-19.49,-315,229,-26,R
87.55,-59.25,-18.39,259,-306,220,R
87.04,-59.52,-17.85,-175,169,162,R
86.35,-59.72,-17.27,118,123,230,R
85.58,-59.84,-16.65,-118,204,-265,R
84.72,-59.95,-15.94,-241,-180,-181,R
-62.41,8.07,13.96,293,-188,-88,R
-62.39,8.1,13.75,-78,-265,130,R
-61.85,8.77,14.66,-160,-3,-221,R
-60.51,10.43,16.37,275,-52,-166,R
-63.15,8.61,6.39,63,234,-191,R
-62.37,9.89,6.35,178,307,216,R
-61.84,11.17,6.27,-237,53,-69,R
-62.54,17.41,5.39,183,-194,-52,R
-61.81,19.72,5.33,235,89,-259,R
-56.69,17.7,0.55,226,192,-323,R
-55.15,13.81,4.62,-190,-256,-199,R
-51.13,12.21,8.46,-314,-259,-189,R
-50.53,12.11,8.96,289,321,316,R
-50.54,12.28,9.09,-98,-46,34,R
-49.84,22.86,10.41,18,291,-324,R
-53.77,26.27,6.41,-201,-213,-258,R
-54.04,26.61,5.48,-127,-107,103,R
-54.06,26.86,4.72,-61,-120,-133,R
-53.91,27.03,4.11,-256,-204,-292,R
-53.32,21.76,4.11,282,86,243,R
-54.04,23.11,4.0,213,78,-239,R
-54.63,24.43,4.17,-6,-28,84,R
-55.35,26.53,4.59,-325,-259,-255,R
-55.1,24.94,0.46,-256,-117,273,R
-55.78,24.11,-0.02,229,320,-303,R
-54.13,18.3,3.3,-281,118,168,R
-54.62,17.17,4.11,-162,226,-222,R
-51.51,28.56,8.78,24,-194,-46,R
-50.75,28.08,9.66,187,165,-240,R
-52.1,27.92,7.32,164,-167,-195,R
-52.4,18.42,5.33,226,242,223,R
-51.96,19.37,5.25,-121,-224,-265,R
-51.68,20.43,5.25,315,75,155,R
-52.21,23.9,6.69,-237,15,-127,R
-53.08,25.58,3.69,256,35,312,R
-52.63,25.05,1.39,185,-207,151,R
-52.12,24.59,0.46,-204,80,305,R
-51.97,24.23,-0.15,71,83,-36,R
-52.2,23.82,-0.61,-178,-26,242,R
-52.51,23.13,-0.97,80,137,-211,R
-52.08,31.08,3.26,-98,-86,266,R
-49.8,29.34,5.69,217,-135,261,R
-48.83,28.8,7.14,245,111,199,R
-46.3,25.32,10.68,-31,66,-8,R
-45.81,24.4,11.62,273,-211,-326,R
-52.78,17.85,4.41,39,201,237,R
-52.26,16.49,5.44,-33,109,-258,R
-51.78,15.16,6.22,-48,163,312,R
-50.86,13.63,6.77,-233,159,166,R
-50.61,14.2,6.26,155,135,-26,R
-40.33,21.99,16.05,-1,-302,-210,R
-40.37,22.28,15.28,-213,-29,290,R
-42.68,26.21,10.76,-225,-155,287,R
-43.67,27.38,9.24,1,42,136,R
-44.8,28.5,7.66,-308,307,-203,R
-45.97,29.59,6.08,285,-109,-112,R
-44.03,26.58,3.21,244,-283,-322,R
-44.47,27.85,2.73,-277,-17,-270,R
-45.19,29.04,2.58,74,228,-99,R
52.05,-51.46,38.5,230,201,-122,S
50.66,-49.4,40.42,233,-132,-4,S
49.12,-47.29,42.3,226,141,-41,S
47.12,-44.89,44.46,142,-24,-60,S
44.79,-42.28,46.83,-5,-105,47,S
42.37,-39.65,49.22,173,3,46,S
39.88,-37.01,51.56,55,-48,102,S
-74.65,44.32,5.98,-219,-255,-279,S
-77.27,43.93,3.96,120,-34,113,S
-81.7,40.52,0.48,-166,84,192,S
-87.75,45.59,-3.67,-137,55,174,S
-85.16,46.8,-3.84,-270,-236,-152,S
-85.24,37.62,-1.25,295,-142,-87,S
-90.47,38.59,-0.49,123,23,132,S
-90.66,39.3,-1.58,-23,215,-27,S
-90.87,40.07,-2.51,321,167,-185,S
-89.94,40.08,-4.59,-262,109,111,S
-110.58,36.14,-0.69,27,-171,302,S
-102.26,40.49,-10.52,282,48,236,S
-105.02,37.7,-14.8,-135,244,-54,S
-106.09,40.41,1.68,-126,60,5,S
-104.24,42.76,-2.11,291,-226,237,S
-110.86,43.35,-7.4,263,276,-100,S
-110.2,44.22,-5.51,146,310,-140,S
-102.55,46.52,6.43,326,-178,-8,S
-106.84,41.99,13.51,-175,-322,-223,S
-106.55,44.24,6.69,274,-30,-260,S
-116.14,43.22,-5.26,-165,98,9,S
-103.52,46.53,1.95,220,295,304,S
-104.64,46.23,0.31,157,24,92,S
-108.25,47.7,10.77,-132,-168,-281,S
-108.13,47.53,11.16,241,64,-168,S
-108.19,47.59,11.17,-20,139,-156,S
-108.37,47.8,10.83,-141,2,-152,S
-115.05,44.1,-7.24,231,-311,47,S
-117.6,42.58,-9.15,103,-296,-255,S
-119.97,41.27,-10.29,299,288,-45,S
-121.05,40.79,-10.6,79,33,281,S
-121.97,40.6,-10.77,-128,302,70,S
-122.69,40.71,-10.73,162,311,-97,S
-110.68,45.04,6.99,-292,-190,49,S
-111.85,45.64,4.32,160,224,-31,S
-113.05,44.95,0.74,-193,-184,-22,S
-114.51,44.1,-0.71,270,-52,-108,S
-115.53,43.93,-1.3,13,204,-196,S
-131.15,38.36,0.59,91,-16,-164,S
-129.81,38.68,2.89,158,-81,125,S
-128.76,38.73,5.17,323,-15,-116,S
-128.06,38.66,7.3,-186,280,-43,S
-127.64,38.64,9.02,101,-154,300,S
-127.47,38.85,10.89,-140,-221,41,S
81.16,-71.01,9.44,76,180,280,L
87.01,-74.72,4.1,61,-144,188,L
92.67,-76.89,-1.12,133,199,-164,L
97.63,-77.02,-5.9,324,-8,92,L
101.69,-75.72,-10.0,119,-126,238,L
104.85,-73.95,-13.37,234,-166,30,L
107.28,-72.26,-16.14,184,-231,-233,L
108.99,-71.03,-18.31,-114,-22,150,L
109.8,-70.36,-19.48,181,277,-127,L
122.0,-64.56,-25.2,196,-182,138,L
122.37,-64.8,-24.93,256,-62,154,L
122.37,-65.16,-24.56,-44,72,-325,L
121.8,-65.84,-23.9,265,-51,50,L
122.22,-66.26,-23.45,166,-293,101,L
123.71,-66.59,-23.06,-209,-317,139,L
125.11,-64.61,-25.14,146,-230,-202,L
100.75,-79.46,-10.46,-309,-158,-27,L
99.61,-80.42,-9.46,86,-305,39,L
101.62,-75.53,-13.32,-228,-296,261,L
103.89,-73.96,-15.25,-130,201,-97,L
104.65,-73.45,-15.86,-103,192,9,L
105.44,-72.89,-16.51,-68,176,127,L
106.22,-72.32,-17.16,-19,186,204,L
121.64,-58.71,-31.26,92,16,-213,L
123.05,-57.02,-32.98,39,245,230,L
123.67,-56.41,-33.59,116,253,-230,L
125.32,-54.72,-35.28,93,-158,-250,L
120.99,-61.39,-27.28,-284,191,91,L
120.94,-61.76,-26.68,242,-212,235,L
117.97,-65.49,-21.05,9,161,-2,L
128.63,-55.91,-33.5,-218,-120,220,L
129.25,-54.65,-35.04,53,324,204,L
129.29,-54.29,-35.49,-111,36,44,L
129.5,-53.48,-36.43,-104,321,-242,L
158.04,-63.61,-13.6,52,282,169,L
156.72,-64.14,-13.55,-184,-300,100,L
155.05,-64.6,-13.59,136,-176,92,L
153.12,-64.92,-13.77,-171,21,148,L
150.98,-65.09,-14.16,214,203,287,L
148.71,-65.13,-14.65,-104,46,-162,L
146.46,-65.16,-14.95,276,-323,-58,L
144.38,-65.21,-15.01,30,42,28,L
142.7,-65.23,-14.83,-262,318,69,L
-178.89,-14.35,60.36,35,-85,244,L
179.33,-9.48,65.66,-282,-178,-114,L
176.83,-4.36,70.54,137,-271,35,L
165.05,14.04,75.07,268,67,-56,L
162.38,17.5,72.48,289,-196,248,L
159.6,20.63,69.09,307,165,265,L
108.28,17.45,5.43,-204,-233,-239,L
94.35,13.93,-4.62,287,308,55,L
94.27,13.3,-5.62,139,110,191,L
107.89,9.89,8.66,125,-71,-284,L
108.05,9.76,8.71,302,273,-125,L
107.25,10.33,8.26,-64,-155,-22,L
106.39,10.69,7.69,157,-194,122,L
95.63,8.14,-3.95,53,-120,259,L
95.32,8.45,-2.63,79,-221,136,L
95.18,9.91,4.16,-291,23,311,L
101.78,13.58,6.45,165,-125,0,L
99.77,12.84,1.95,35,-292,12,L
99.07,12.56,1.22,-110,-121,323,L
98.48,12.19,0.26,-281,112,-291,L
98.1,20.02,11.26,-162,4,-86,L
99.81,19.75,11.73,-76,-103,-81,L
101.1,19.07,10.57,224,-183,86,L
101.6,18.88,9.66,-48,113,-48,L
101.97,18.89,8.67,323,-28,288,L
103.29,7.78,-8.37,-304,-27,-104,L
103.19,7.95,-8.4,-317,309,213,L
102.92,8.33,-8.08,246,68,196,L
102.49,8.84,-7.49,145,-37,18,L
100.77,10.34,-5.97,246,1,-172,L
97.81,12.07,-3.84,-150,218,-61,L
97.58,11.67,-4.36,218,160,-77,L
97.34,11.34,-5.06,68,107,51,L
-27.44,-52.99,-18.31,-277,71,-229,L
-29.36,-53.34,-18.0,105,-162,206,L
-31.14,-53.72,-17.62,57,257,24,L
-32.87,-54.14,-17.16,124,32,-55,L
-34.75,-54.7,-16.6,230,-177,-68,L
-36.83,-55.41,-15.93,-310,260,-71,L
-39.03,-56.23,-15.21,-228,41,-92,L
-41.14,-57.03,-14.51,-119,-164,-123,L
-43.01,-57.69,-13.83,74,-292,-153,L
-61.74,-58.11,-6.95,194,-55,161,L
-61.52,-57.84,-7.17,207,-319,-252,L
-61.2,-57.72,-7.53,144,189,-195,L
-60.85,-57.74,-7.96,-20,185,323,L
-60.49,-57.86,-8.39,-267,258,60,L
-38.08,-64.37,-23.61,-15,-89,-50,L
-38.55,-64.46,-24.2,-82,-103,-190,L
-37.56,-64.33,-24.71,-110,-228,-143,L
-20.41,-63.68,-25.67,35,-218,219,L
99.59,-70.35,-16.36,-50,263,-20,L
101.15,-69.4,-17.15,150,-95,164,L
103.59,-68.33,-18.53,86,-192,-255,L
108.96,-69.2,-19.88,49,-31,155,L
108.62,-69.46,-19.56,36,95,317,L
108.1,-69.99,-19.01,65,-41,140,L
108.31,-69.77,-19.21,-169,-327,-152,L
108.78,-68.61,-19.88,-12,321,239,L
84.3,-77.34,6.78,-246,302,-97,L
83.24,-75.92,8.05,46,-158,-310,L
82.52,-74.54,9.05,-103,-48,-21,L
81.96,-73.35,9.93,-4,38,41,L
81.27,-72.4,10.93,293,249,69,L
45.8,-43.62,45.73,-93,-115,11,L
32.7,-31.37,58.35,106,151,306,L
12.61,-11.59,77.97,-246,281,-280,L
-123.19,32.46,-8.21,36,-256,-178,L
-123.44,31.51,-4.0,-234,-57,202,L
-124.0,31.0,0.08,-24,-39,190,L
-124.5,31.57,4.26,-283,-194,6,L
-124.6,33.45,9.06,24,193,310,L
-125.78,37.15,21.29,-112,-120,325,L
-83.68,48.36,-7.81,40,196,-26,L
-82.42,49.22,-8.27,116,305,-209,L
-75.77,53.52,-4.24,54,72,306,L
-73.17,54.37,-1.92,-86,48,-177,L
-71.59,54.83,-0.34,27,187,-258,L
-71.4,55.12,0.14,292,285,-291,L
-123.81,40.01,18.28,-254,-322,31,L
-123.01,39.62,21.32,263,-213,-63,L
-115.27,36.47,24.98,-320,-300,221,L
-83.15,49.97,-9.87,40,-130,-154,L
-83.73,50.29,-9.88,211,129,283,L
-85.14,50.78,-10.08,200,-268,-76,L
-112.82,37.19,22.93,-191,194,50,L
-111.91,37.53,20.65,250,-184,-294,L
-110.67,37.64,18.16,36,-201,-3,L
-109.56,37.68,15.6,-302,-1,-57,L
-104.71,38.43,5.72,186,243,-315,L
-103.59,38.66,3.12,168,-245,296,L
-108.17,40.19,-21.35,-79,85,-314,L
-108.38,41.35,-17.19,-9,179,31,L
-107.36,42.85,-14.13,118,-173,89,L
-113.0,43.24,-4.65,-25,207,-247,L
-100.61,45.39,7.54,-108,15,-258,L
-99.67,45.67,5.7,73,-158,245,L
-91.5,45.91,1.38,-107,-185,-137,L
-105.53,38.69,-6.65,31,-314,140,L
-106.56,37.82,-4.81,-56,165,-295,L
-109.47,38.34,3.34,240,-77,166,L
-111.46,40.95,10.77,-244,50,15,L
-92.47,43.57,-0.84,12,-43,155,L
-90.77,45.05,-1.54,-80,-96,218,L
-82.41,56.25,-2.41,-107,22,-20,L
-80.58,57.89,-1.91,46,17,84,L
-114.32,38.61,-15.11,-129,153,-278,L
-116.44,37.17,-13.75,-163,-149,-296,L
-117.98,36.71,-8.56,-299,192,99,L
-117.46,37.17,-2.41,-154,324,23,L
-119.06,37.18,0.29,286,-19,-30,L
-120.81,37.4,3.24,-281,-75,-149,L
-84.18,41.36,-11.2,62,281,-239,L
-74.97,46.84,-4.78,53,-302,-50,L
-74.29,46.91,-4.87,76,-279,-324,L
-120.53,39.31,16.2,-317,266,148,L
-118.37,38.43,18.66,59,294,-221,L
-115.41,36.86,19.26,46,-262,171,L
-114.74,36.81,18.27,-283,-1,-278,L
-75.48,50.69,-1.93,170,123,-27,L
-76.99,51.64,-2.46,-267,-26,-157,L
-79.01,51.72,-4.17,-266,-250,23,L
-82.31,50.88,-7.34,252,13,-39,L
-101.32,41.35,-22.37,-204,-152,-154,L
-113.4,34.16,18.16,-165,-68,90,L
-108.44,33.12,9.2,-92,101,-183,L
-106.55,32.85,7.1,-116,-234,-184,L
-104.63,32.85,4.94,175,59,-26,L
-101.07,46.18,-17.11,118,-241,-295,L
-105.18,43.55,-17.68,-76,124,285,L
-106.82,42.73,-17.04,-118,146,239,L
-101.34,43.64,-6.96,-118,-318,48,L
-101.66,44.56,-9.02,229,62,320,L
-101.4,45.78,-10.61,-102,104,227,L
-100.81,47.05,-11.85,210,-52,152,L
-113.12,45.47,-12.61,-1,-317,12,L
-117.09,44.53,-6.5,-101,-195,124,L
-118.97,44.58,-4.4,-99,-152,-11,L
-120.39,45.12,-1.91,306,-323,-19,L
-94.53,41.51,-12.12,-52,-31,280,L
-90.62,44.87,-12.46,278,20,-115,L
-87.68,44.19,-13.46,-83,-296,131,L
-83.72,43.78,-14.22,-252,-19,-90,L
-123.67,37.76,-6.36,-123,-56,-248,L
-125.12,39.15,-4.43,240,296,251,L
-127.28,40.63,-2.99,-282,-48,315,L
-130.38,44.12,1.0,2,91,85,L
-130.31,45.54,4.12,-179,-256,47,L
-76.47,45.96,-6.92,129,84,-315,L
-69.2,51.19,-0.73,-86,80,-72,L
-70.51,50.15,-3.26,-147,-19,-190,L
-130.39,41.97,0.52,-112,-49,102,L
-129.64,41.82,6.84,273,167,249,L
-127.67,40.27,8.55,-266,-142,236,L
-60.92,49.09,-0.64,-284,51,-47,L
-63.89,49.4,-2.68,-186,-53,-295,L
-109.83,40.26,17.94,324,43,238,L
-107.29,39.78,16.57,213,-195,218,L
-105.23,39.29,14.8,117,321,275,L
-73.97,54.25,-4.47,-33,162,-11,L
-78.61,53.34,-8.32,-190,-124,-314,L
-84.29,52.0,-12.55,83,140,236,L
-89.56,50.33,-16.16,-200,45,221,L
-103.04,39.57,-22.88,71,24,-14,L
-104.3,30.46,3.81,-147,141,-268,L
-101.19,31.47,-0.8,-128,-106,99,L
-98.48,32.88,-6.94,100,126,-174,L
-97.64,33.72,-8.43,98,-178,-109,L
-96.69,34.75,-9.71,-190,-246,70,L
-114.22,29.76,-20.03,60,141,197,L
-117.93,27.71,-19.76,-121,-216,300,L
-121.38,26.3,-19.05,-301,-238,-145,L
-126.37,25.98,-16.12,262,250,-310,L
-39.15,44.26,20.92,-183,-205,-291,L
-36.6,44.52,22.08,-162,-104,-98,L
-34.59,44.96,23.11,100,-252,-270,L
-32.72,46.95,24.46,-124,-187,13,L
-123.11,41.81,-5.59,-123,-299,-169,L
-125.97,42.33,-4.19,-278,203,-107,L
-133.67,46.64,0.02,-31,52,311,L
-136.28,47.93,1.41,-173,269,-130,L
-21.44,39.87,24.24,-240,-314,228,L
-19.41,39.98,25.99,-224,-235,-196,L
-14.46,38.4,28.81,-114,-195,283,L
115.58,-71.64,-17.96,-140,-153,-213,R
115.38,-72.0,-17.58,-109,47,221,R
114.55,-72.38,-17.26,-95,206,303,R
113.37,-72.67,-17.07,-212,238,-11,R
112.15,-72.84,-16.99,219,197,144,R
111.07,-72.92,-16.98,-102,127,309,R
110.22,-72.98,-16.96,210,60,-101,R
115.63,-69.02,-20.08,145,-134,14,R
115.57,-69.01,-20.1,133,-118,320,R
109.64,-68.74,-20.96,128,-126,-189,R
108.47,-69.53,-20.05,6,-246,261,R
106.96,-69.83,-19.25,-125,-188,322,R
107.18,-69.81,-19.28,115,-230,-36,R
98.04,-81.75,-8.14,143,97,-206,R
97.49,-81.83,-7.71,-196,-24,-305,R
97.02,-82.76,-7.05,234,-133,-118,R
-12.16,7.17,64.38,-251,276,-160,R
-16.23,11.73,60.98,44,-99,-160,R
-19.86,16.19,57.67,-297,277,82,R
-114.13,60.5,5.89,-294,275,-243,R
-119.29,59.36,9.96,273,194,-257,R
-57.37,57.16,24.78,224,-273,85,R
-53.68,54.55,26.74,85,-282,-276,R
-136.96,59.27,9.06,-78,-162,-220,R
-154.94,62.22,11.1,-237,-272,-95,R
-155.65,56.05,20.09,252,204,62,R
-45.04,44.95,29.1,183,115,-258,R
-138.91,51.68,21.39,-245,-48,-182,R
-69.59,55.79,26.68,-122,-99,178,R
-78.49,58.83,23.23,-36,46,223,R
-89.37,61.77,19.21,23,-229,269,R
-97.14,58.01,14.22,34,39,-147,R
-74.13,63.51,22.54,223,114,-294,R
-78.91,65.73,19.49,323,-149,170,R
-106.28,70.98,5.57,299,105,240,R
-70.51,57.19,21.84,207,-210,18,R
-120.57,63.9,6.58,-24,261,-277,R
-156.29,56.62,6.64,220,235,325,R
-54.55,40.21,31.34,-199,-246,-293,R
72.77,17.57,6.97,256,-207,280,R
73.74,17.65,8.06,97,-323,92,R
74.95,17.55,8.71,-96,213,-158,R
76.16,17.3,9.01,264,126,108,R
77.11,16.86,8.96,-182,-2,316,R
77.7,16.26,8.48,-285,-245,-103,R
77.99,15.65,7.61,2,175,276,R
77.91,14.56,5.11,322,-195,254,R
70.1,7.16,-14.22,286,204,-327,R
69.97,6.52,-14.92,-185,44,-191,R
70.1,6.13,-15.3,193,-261,-144,R
70.5,6.1,-15.47,80,45,-153,R
71.07,6.3,-15.66,80,-167,305,R
71.69,6.57,-15.78,288,-242,11,R
72.37,6.82,-15.71,118,315,-218,R
73.14,7.05,-15.54,159,132,303,R
73.89,7.32,-15.3,2,-84,69,R
113.16,42.32,31.38,-114,-303,268,R
116.44,44.74,33.1,282,-245,166,R
119.4,47.02,34.75,-3,-4,-219,R
121.86,48.99,36.09,-308,248,-139,R
123.74,50.57,36.92,36,-270,-144,R
125.24,51.75,37.32,-237,-127,-38,R
126.62,52.53,37.37,179,79,-152,R
128.05,52.75,37.11,-52,284,281,R
129.76,52.12,36.69,-286,325,194,R
-118.56,-54.46,-30.41,-229,41,234,R
-104.69,-54.05,-31.74,-15,-51,-268,R
-92.36,-54.39,-31.58,40,-283,-186,R
-88.03,-53.84,-31.36,-235,81,66,R
-88.94,-53.72,-30.17,141,218,-270,R
-92.84,-53.6,-28.64,73,-14,167,R
-98.44,-53.39,-27.59,152,-296,-155,R
-105.45,-53.51,-27.32,39,23,-198,R
-114.49,-53.94,-27.39,-304,68,247,R
-95.57,-49.16,-35.69,316,303,-98,R
-93.98,-49.31,-35.31,-74,-228,-4,R
-92.4,-49.35,-35.04,-255,-305,97,R
-90.57,-49.32,-34.89,229,106,267,R
-88.22,-49.39,-34.87,-238,-170,-105,R
-85.95,-49.42,-34.86,111,-237,-13,R
-83.95,-49.35,-34.91,-199,-117,187,R
-82.28,-49.26,-34.98,184,-37,-306,R
-80.86,-49.21,-35.06,34,34,-77,R
-54.46,-47.11,-42.64,-47,283,-154,R
-54.97,-47.36,-42.41,-165,-50,255,R
-55.79,-52.29,-37.67,-61,264,-145,R
-53.52,-54.33,-35.67,-6,3,260,R
-72.67,-52.61,-36.01,141,209,202,R
-76.14,-51.92,-36.24,297,-170,13,R
-80.45,-51.39,-36.35,-45,183,154,R
-85.29,-51.18,-36.2,83,-107,278,R
-99.47,-52.1,-33.58,143,-165,-136,R
-103.02,-52.26,-32.42,-152,268,-87,R
179.19,-53.69,-24.57,-27,-84,-246,R
-171.03,-52.83,-27.21,66,-271,-92,R
-111.8,266.92,-1842.25,-164,-52,-28,R
-155.61,-51.46,-29.45,-206,-66,239,R
-146.07,-50.95,-30.37,286,-300,265,R
-136.73,-50.79,-31.29,-303,161,-237,R
-102.59,-50.86,-37.66,163,293,-162,R
-103.73,-51.13,-37.3,300,-262,-88,R
-106.07,-51.55,-36.72,-125,82,152,R
-107.16,-51.7,-36.55,-147,166,222,R
-108.11,-51.84,-36.43,-210,217,-307,R
-108.78,-51.98,-36.37,301,240,-231,R
-109.2,-52.12,-36.33,83,272,-171,R
-109.68,-52.26,-36.28,-154,266,-178,R
-93.63,-54.8,-32.37,169,99,33,R
-93.55,-54.84,-31.96,69,-92,55,R
-93.65,-54.94,-31.53,97,-299,-29,R
-93.74,-55.12,-31.09,-97,210,-302,R
-94.38,-55.35,-30.56,-7,287,19,R
-99.15,-57.3,-29.08,94,251,263,R
-151.82,-55.67,-7.17,217,83,-190,R
-151.8,-51.59,2.36,90,119,13,R
-157.14,-44.88,12.72,58,206,225,R
132.21,49.68,30.83,156,322,-78,R
129.49,52.77,29.31,207,107,322,R
126.81,55.64,27.83,318,75,216,R
118.64,63.71,23.7,-251,-288,-155,R
116.35,65.7,22.8,7,-5,-8,R
112.51,68.53,21.22,22,99,160,R
49.52,40.5,2.78,20,58,155,R
50.85,42.1,3.4,25,188,125,R
54.12,42.8,6.28,285,186,59,R
54.7,42.37,8.74,-42,-201,1,R
53.84,42.1,14.9,187,138,213,R
47.51,28.0,-21.66,103,111,294,R
48.56,28.66,-22.11,-62,-168,84,R
50.21,30.5,-22.33,287,-292,283,R
51.65,32.65,-22.79,120,-124,-33,R
50.96,35.38,-27.08,142,279,-159,R
50.31,36.22,-28.74,-286,-303,-134,R
50.32,37.58,-30.37,197,-176,156,R
28.14,57.78,11.87,293,28,-309,R
23.41,59.97,15.6,317,-146,315,R
20.96,59.62,19.98,-12,-134,227,R
24.71,56.5,24.57,-294,-216,-225,R
48.05,30.96,-28.61,91,-264,-174,R
50.13,34.34,-30.1,153,36,-57,R
53.3,38.62,-30.8,57,-180,-69,R
56.08,42.12,-31.0,-304,255,-95,R
57.27,43.33,-31.26,8,-273,164,R
57.3,42.43,-31.38,38,-45,268,R
56.9,40.7,-31.0,324,53,159,R
56.82,39.54,-30.09,-170,-120,-220,R
45.2,42.1,2.28,-324,-69,-102,R
46.2,48.63,13.96,-165,-73,-197,R
48.62,51.06,24.75,234,-227,234,R
53.37,49.37,26.3,-122,165,17,R
51.64,36.14,-31.42,159,28,-105,R
51.28,34.81,-31.47,-160,303,-217,R
54.25,36.58,-28.81,166,-38,-195,R
-2.45,21.92,45.0,-102,248,-285,S
-2.03,20.48,47.35,176,250,145,S
-1.65,18.79,50.67,127,226,98,S
-0.93,16.69,54.62,273,227,-171,S
0.26,14.13,58.65,247,101,-211,S
1.84,11.14,62.58,-217,134,158,S
3.7,7.62,66.77,-165,-16,208,S
5.97,3.2,71.74,9,-273,-61,S
9.0,-2.58,77.07,212,-283,317,S
115.88,-37.6,-40.94,-307,127,-254,S
118.55,-39.05,-40.72,81,99,2,S
120.64,-40.34,-40.65,125,325,69,S
122.08,-41.51,-40.59,54,-267,-24,S
124.46,-44.33,-40.25,176,57,12,S
125.03,-45.06,-40.46,-313,-118,0,S
107.15,-54.55,-31.79,-86,38,79,S
104.11,-53.47,-31.56,-294,74,112,S
102.08,-51.15,-31.73,104,87,187,S
103.5,-51.92,-31.68,-155,62,-295,S
105.32,-53.12,-31.53,55,228,246,S
99.56,-65.39,-20.56,308,-120,0,S
100.52,-66.24,-20.5,-316,-141,-237,S
101.97,-67.82,-20.14,190,-9,227,S
101.67,-68.36,-19.71,125,54,-302,S
18.98,-21.42,62.02,267,-178,-105,S
14.09,-17.34,62.4,-177,63,-186,S
9.03,-13.24,61.58,126,79,37,S
-16.21,5.61,50.05,255,269,70,S
-22.81,10.22,45.51,139,83,-23,S
-50.42,26.96,13.93,-10,266,297,S
-51.3,28.91,13.14,77,-137,-105,S
-52.2,31.19,12.03,-193,-228,-24,S
-53.4,33.51,10.52,-112,-286,45,S
-56.42,37.5,6.75,-52,80,3,S
-56.24,33.54,0.55,-253,319,177,S
-56.54,34.1,0.69,-289,77,-281,S
-56.12,34.31,1.24,75,5,-316,S
-54.0,34.66,2.97,3,38,115,S
-59.87,32.49,-0.64,212,303,-263,S
-59.54,31.95,-0.63,-92,-29,-290,S
-59.06,31.64,-0.57,-127,-88,-104,S
-58.42,31.33,-0.35,-118,75,-178,S
-56.93,29.61,0.62,7,157,-249,S
-51.53,34.85,-0.05,231,210,57,S
-51.3,35.09,-0.11,108,171,161,S
-50.96,34.97,0.01,-266,306,11,S
-49.22,33.99,2.49,-3,135,227,S
-48.98,33.87,2.99,293,-280,127,S
-53.81,36.42,-1.47,86,86,-69,S
-53.35,34.16,-0.1,275,-1,317,S
-52.85,32.79,0.33,-282,255,-311,S
-52.44,31.64,0.8,46,-73,1,S
-52.11,30.31,2.32,-313,-77,-10,S
-50.95,34.23,3.6,59,-273,119,S
-50.77,34.47,4.04,289,8,2,S
-50.72,34.54,4.55,-16,270,178,S
-50.24,33.39,5.75,-275,157,-54,S
-48.39,31.76,8.94,-272,-12,62,S
-50.69,31.74,4.84,298,-101,50,S
-50.82,30.95,5.11,-179,-36,-166,S
-51.19,29.89,5.29,-196,-136,-259,S
-53.35,27.03,5.96,-267,-192,-145,S
-53.88,25.29,6.8,-126,45,-49,S
-53.01,35.01,6.17,221,-167,-268,S
-53.14,34.66,6.93,-111,-140,-204,S
-53.06,34.29,7.64,46,44,-71,S
-48.47,31.68,9.71,27,-296,9,S
-47.56,31.06,10.3,-305,-276,233,S
-47.29,32.84,2.23,-120,-13,-123,S
-47.62,32.04,2.49,156,-235,-225,S
-47.95,31.56,2.82,-17,-5,310,S
-48.07,28.9,4.05,47,-104,-135,S
-47.47,27.83,4.53,-41,-265,-269,S
-46.67,27.08,4.86,77,-23,101,S
-48.33,40.86,3.77,298,-134,80,S
-47.91,40.71,3.87,-325,-162,-27,S
-47.63,40.51,3.77,-140,69,297,S
-46.98,39.44,3.9,-62,-227,241,S
-52.37,32.18,0.87,-267,322,30,S
-52.15,31.21,1.35,-316,283,-320,S
-51.83,30.17,1.84,202,-278,-77,S
-51.3,29.09,2.4,-7,-168,126,S
-48.79,24.29,4.5,-109,293,-298,S
-44.75,32.14,5.96,-145,54,-242,S
-44.32,32.1,6.25,147,-109,-95,S
-43.94,31.83,6.65,161,-177,187,S
-43.49,31.43,7.14,-159,-219,155,S
-46.89,32.38,3.32,-47,233,-234,S
-47.33,31.91,3.58,73,-40,228,S
-48.13,30.38,4.46,-65,-111,11,S
-48.41,29.67,4.89,-252,17,173,S
-48.68,29.11,5.31,-249,230,-241,S
118.72,40.86,3.41,-43,173,-308,S
116.23,40.78,1.34,-225,308,184,S
114.09,40.56,-0.4,235,-23,-40,S
112.4,40.28,-1.75,182,-152,314,S
111.17,39.96,-2.78,-211,120,-14,S
110.13,39.52,-3.82,124,-137,-320,S
108.89,38.83,-5.02,272,130,51,S
107.22,37.92,-6.2,-278,138,-273,S
101.65,33.67,1.96,-298,-268,96,S
101.52,34.39,1.09,69,-303,120,S
110.28,38.63,0.42,313,94,-295,S
106.5,38.71,-3.19,221,-82,-4,S
97.05,29.86,1.13,232,-201,-301,S
104.64,41.13,-0.09,259,-3,90,S
98.75,38.75,-5.63,159,-72,-285,S
96.23,30.3,6.79,-3,-238,-286,S
93.59,36.52,-5.51,-276,-261,-55,S
90.51,36.06,-8.0,-111,-270,-137,S
88.22,35.83,-9.67,-181,-205,-291,S
85.38,32.51,-1.75,12,-64,16,S
93.56,37.88,-4.88,44,-305,85,S
88.7,36.48,-9.43,104,303,22,S
80.42,24.71,2.9,-65,-262,122,S
89.93,30.69,-0.72,-162,-117,-128,S
74.84,24.71,1.75,89,-78,217,S
75.89,27.49,-2.06,198,-231,140,S
86.13,31.22,-4.24,-301,81,35,S
82.53,31.07,-6.75,-251,-112,36,S
76.88,29.45,-5.76,-80,202,-194,S
73.25,28.47,-8.85,-138,-315,-256,S
72.54,28.16,-8.21,80,67,43,S
72.36,27.98,-7.68,56,-127,146,S
72.15,27.61,-6.87,171,-53,297,S
73.25,26.92,-1.74,151,-25,213,S
73.62,27.39,-2.56,-164,-25,298,S
74.68,28.89,-3.92,-86,-80,103,S
75.29,29.11,-3.97,-212,-79,287,S
76.03,29.09,-3.77,268,-112,35,S
76.83,29.17,-3.45,-297,-66,-170,S
71.95,30.41,-6.63,121,-157,45,S
71.21,30.04,-6.42,97,-1,113,S
70.71,29.66,-6.03,-102,-48,202,S
70.5,29.35,-5.5,278,-29,225,S
70.46,29.07,-4.79,131,110,160,S
70.37,28.79,-3.9,168,320,21,S
70.19,28.43,-2.82,-191,-196,-188,S
74.47,28.85,2.27,-316,307,56,S
74.9,29.98,0.01,119,92,85,S
74.98,30.27,-0.75,-81,309,-240,S
74.85,30.33,-1.46,148,197,257,S
63.95,26.51,2.35,257,-57,224,S
64.03,27.43,1.31,-106,237,40,S
63.84,28.4,0.29,216,-11,278,S
63.7,29.34,-0.66,-76,-73,297,S
63.97,30.2,-1.44,282,-164,126,S
64.6,30.84,-1.95,-96,-85,-30,S
65.39,31.33,-2.17,312,243,-184,S
66.19,31.75,-2.3,195,-190,-184,S
66.98,32.3,-2.4,280,-312,301,S
65.26,36.52,-2.79,-42,228,302,S
63.65,36.22,-3.71,-17,-304,-318,S
62.01,35.75,-4.51,-107,-237,216,S
60.57,35.15,-5.13,-250,-291,37,S
59.35,34.48,-5.54,320,176,-159,S
58.24,33.85,-5.77,-252,14,120,S
57.14,33.27,-5.86,-47,9,153,S
55.93,32.69,-5.87,114,146,-16,S
51.77,28.37,-3.61,80,118,-193,S
52.49,28.99,-4.07,-82,67,36,S
53.21,29.54,-4.42,-277,71,49,S
54.12,30.09,-4.63,-248,265,7,S
56.83,31.12,-4.03,325,-100,-264,S
53.91,32.31,-7.3,18,-126,-118,S
52.79,31.85,-7.25,-283,-75,104,S
51.72,31.46,-6.94,86,-91,296,S
49.53,30.16,-3.93,-167,165,-94,S
49.32,29.59,-2.47,301,-222,198,S
49.07,29.1,-0.74,-214,-215,-131,S
52.48,34.87,-5.95,276,-115,75,S
54.41,35.7,-5.96,229,-64,157,S
56.57,35.75,-4.45,164,59,-287,S
56.66,35.81,-3.96,-180,-132,-325,S
57.46,35.32,-2.7,144,44,-181,S
50.06,32.57,-2.44,309,252,52,S
48.9,32.52,-2.21,-61,-312,-280,S
46.77,30.9,-0.04,321,-29,226,S
46.74,30.5,1.31,65,36,88,S
47.21,30.08,5.18,14,-66,-148,S
51.57,35.64,-4.88,232,-183,114,S
52.86,36.23,-4.65,-4,103,192,S
53.77,36.62,-4.27,199,-259,58,S
56.76,36.88,-2.51,-315,-243,-180,S
57.81,37.02,-1.74,58,-234,-237,S
58.7,37.25,-1.03,-153,-126,313,S
40.15,33.41,3.14,219,293,114,S
42.34,32.87,6.48,-44,52,-301,S
43.83,32.56,7.84,194,145,-174,S
45.27,32.28,8.92,-284,-239,91,S
54.92,33.75,1.65,-112,3,-82,S
55.01,33.41,2.07,-271,-60,-191,S
54.86,33.09,2.33,205,-231,101,S
54.59,32.7,2.45,-215,47,156,S
54.41,32.32,2.46,-179,105,13,S
33.45,28.46,11.18,-278,-111,261,S
34.49,27.94,10.27,-295,243,41,S
34.83,27.97,9.56,118,-204,-239,S
35.0,28.21,8.69,-152,129,117,S
40.4,30.39,-6.04,-34,-290,56,S
39.02,30.34,-6.71,258,-202,-9,S
34.16,30.07,-8.36,43,145,-236,S
26.5,29.7,0.38,208,-149,-231,S
26.76,30.35,-0.39,-283,219,22,S
27.34,30.94,-1.12,-182,-49,-125,S
28.26,31.31,-1.81,311,199,-50,S
29.16,31.51,-2.4,97,313,-280,S
29.95,31.72,-2.83,165,282,-138,S
30.71,31.95,-3.19,-258,260,-92,S
30.5,33.22,-3.78,-235,-92,-147,S
28.74,33.11,-3.84,-79,139,296,S
25.55,32.8,-3.59,311,102,-36,S
24.27,32.66,-3.21,-181,-248,-201,S
20.41,31.53,0.11,-72,-125,71,S
28.71,32.71,1.52,-149,-25,-218,S
29.22,32.91,2.0,-1,234,288,S
30.14,33.0,2.69,279,-187,284,S
31.22,32.7,3.57,262,-326,-192,S
33.36,31.42,6.22,135,-79,20,S
33.53,31.27,6.52,140,-66,-312,S
16.4,27.59,-2.55,122,246,285,S
16.25,27.18,-1.19,203,-294,-173,S
16.53,26.6,0.26,243,59,-222,S
16.68,26.05,1.73,158,-268,171,S
16.42,25.76,3.2,138,280,127,S
16.02,25.61,4.51,-286,-268,-6,S
15.93,24.61,6.77,158,229,-213,S
29.34,31.97,-1.19,122,-289,-253,S
30.05,31.68,-0.5,-44,-101,231,S
30.55,31.5,0.52,281,-300,224,S
29.16,32.04,0.14,-202,-92,251,S
13.25,25.93,4.15,209,50,-101,S
12.49,25.67,4.66,-5,15,154,S
11.95,25.61,4.86,-73,308,303,S
13.01,25.52,3.92,305,64,-218,S
13.47,25.62,3.44,252,200,216,S
13.8,25.81,2.92,37,312,65,S
21.26,31.79,1.08,19,60,243,S
21.11,31.76,0.83,79,-107,-282,S
20.62,31.64,-0.03,118,-190,-227,S
20.11,31.55,-0.51,-31,-96,-25,S
19.41,31.49,-0.94,-170,2,244,S
74.97,31.42,-31.66,-98,-174,224,S
75.6,34.1,-32.95,-93,30,-303,S
76.33,36.82,-34.25,-306,311,-48,S
76.35,38.7,-35.58,253,84,2,S
76.08,39.48,-36.69,-13,135,-240,S
75.99,39.73,-37.44,22,112,-81,S
76.32,40.45,-37.55,303,191,-36,S
77.02,42.12,-36.74,286,147,-133,S
77.47,44.36,-35.4,-249,262,182,S
57.89,57.31,-4.88,-45,-292,-309,S
57.14,61.87,-0.14,-112,-102,-83,S
59.15,64.82,4.61,249,202,-141,S
68.29,64.78,9.91,-138,-138,-183,S
79.41,61.69,14.93,138,-278,280,S
86.99,57.97,18.27,72,-107,198,S
90.45,54.96,19.75,-132,-141,294,S
91.24,52.88,20.16,-281,319,298,S
90.69,51.64,20.01,-239,50,-189,S
156.12,16.08,62.51,-112,237,294,S
152.63,15.85,54.32,-57,315,252,S
145.98,18.14,44.69,324,97,-51,S
138.2,20.8,36.23,-150,175,151,S
130.44,22.61,28.31,-231,195,-232,S
123.69,22.14,20.2,-281,218,-70,S
119.11,18.81,12.35,-34,153,-211,S
117.33,13.1,5.49,-264,-80,-323,S
118.13,6.56,0.76,-160,197,-248,S
149.89,-41.61,-26.06,-29,271,166,S
150.13,-42.11,-26.52,19,149,38,S
149.97,-42.34,-26.83,-222,-190,-172,S
148.5,-42.69,-26.97,-301,315,-293,S
146.16,-43.34,-26.73,-5,-202,254,S
143.92,-43.93,-26.36,-16,-66,11,S
142.8,-43.89,-26.14,-318,-245,-235,S
142.69,-43.36,-26.07,154,276,-44,S
142.92,-43.11,-25.78,218,-245,214,S
141.44,-52.15,-30.23,-204,189,-187,S
141.66,-52.28,-30.09,134,-82,-70,S
141.92,-52.36,-29.97,-39,-306,-83,S
142.01,-52.49,-29.74,-26,244,-285,S
141.76,-52.72,-29.42,57,-227,258,S
141.09,-53.03,-29.14,109,53,156,S
140.19,-53.32,-28.97,164,219,11,S
139.26,-53.55,-28.9,195,271,-41,S
138.38,-53.74,-28.94,239,199,-108,S
130.68,-57.6,-29.49,89,139,-26,S
130.82,-57.71,-29.51,64,-54,-36,S
130.97,-57.83,-29.4,109,18,-5,S
131.08,-57.96,-29.23,197,287,77,S
131.2,-58.04,-29.05,321,-39,134,S
131.38,-58.05,-28.91,-193,131,88,S
131.68,-57.99,-28.81,-114,235,62,S
131.94,-57.91,-28.74,-111,252,-50,S
129.61,-57.72,-29.91,-37,-151,-154,S
129.59,-57.72,-29.97,-94,-155,-160,S
130.47,-56.33,-32.5,-218,230,-14,S
130.6,-56.29,-32.52,-176,230,6,S
130.73,-56.25,-32.55,-154,245,34,S
130.89,-56.19,-32.59,-161,251,44,S
131.06,-56.11,-32.65,-165,230,31,S
131.22,-56.03,-32.72,-149,180,-2,S
131.79,-58.68,-29.78,-67,-195,-233,S
131.32,-61.02,-26.58,-16,55,-117,S
131.17,-62.03,-25.09,253,-58,107,S
163.61,-48.4,38.01,-273,194,-55,S
165.77,-46.87,39.81,-29,205,-17,S
178.7,-41.31,46.52,-98,-1,288,S
-179.26,-40.78,47.25,182,-163,246,S
-174.06,-34.31,54.28,-21,22,201,S
-175.63,-31.14,57.2,-254,121,-310,S
-171.04,-24.28,64.56,-12,-108,87,S
-170.31,-22.77,66.18,51,-8,-112,S
156.66,24.24,46.25,-297,-24,310,S
153.73,24.67,39.84,153,0,-141,S
23.66,33.04,131.0,0,150,22,S
138.44,9.94,4.37,16,-210,210,S
138.69,10.32,4.33,56,-183,31,S
138.83,10.89,4.35,-12,45,-138,S
138.73,11.53,4.42,-207,-316,286,S
137.3,12.67,4.8,-213,123,-220,S
136.69,12.99,5.05,-280,75,-76,S
136.12,13.37,5.23,275,53,-23,S
128.0,17.0,4.25,-321,73,145,S
127.55,16.97,3.78,-183,280,47,S
126.99,16.79,3.17,-103,-233,-19,S
126.31,16.48,2.5,-83,-257,-129,S
125.57,16.09,1.91,-9,-284,-189,S
124.87,15.66,1.4,198,-279,-127,S
123.4,14.6,-0.17,238,-232,-7,S
119.88,15.47,8.72,-280,143,-284,S
120.17,15.42,8.56,318,-52,-247,S
120.52,15.36,8.29,317,-322,-274,S
120.82,15.37,7.99,-287,54,-270,S
120.85,15.47,7.71,-320,-16,-18,S
120.57,15.58,7.4,229,29,-144,S
119.99,15.66,6.82,-144,73,-106,S
119.32,15.83,5.98,309,130,9,S
118.65,16.0,5.19,-190,-159,122,S
108.93,7.33,-12.35,126,86,188,S
109.19,7.26,-12.02,274,52,20,S
109.56,7.27,-11.55,-241,-25,-298,S
110.04,7.36,-10.95,-43,-169,-252,S
107.51,21.94,5.74,-187,-65,-218,S
105.88,21.38,4.94,195,297,-130,S
104.28,20.76,3.64,-197,131,80,S
102.42,20.13,2.03,-300,210,-324,S
100.07,19.2,0.44,-88,-288,193,S
103.53,9.71,-14.63,62,-267,-203,S
103.95,10.74,-13.28,-140,-252,-241,S
104.38,11.98,-10.33,-238,100,287,S
-101.96,-76.43,-11.08,-97,195,-171,S
-102.12,-76.4,-11.11,-106,200,-136,S
-102.23,-76.39,-11.14,-94,200,-110,S
-102.28,-76.37,-11.18,-94,214,-108,S
-102.26,-76.35,-11.24,-81,242,-125,S
-102.18,-76.31,-11.33,-81,271,-174,S
-102.21,-76.27,-11.41,-89,294,-241,S
-117.64,-75.39,-14.01,-133,50,4,S
-136.96,-75.34,-14.11,68,-121,95,S
-146.86,-75.36,-14.1,146,-85,107,S
-171.37,-75.34,-14.13,-315,5,146,S
176.41,-75.35,-14.14,-230,-2,108,S
165.7,-75.38,-14.12,-140,-5,88,S
116.7,-76.01,-12.9,105,-291,-45,S
116.51,-76.05,-12.79,23,-259,-4,S
115.74,-76.28,-12.1,-145,325,262,S
115.63,-76.33,-11.95,-160,-258,-274,S
115.53,-76.36,-11.8,-219,-179,-158,S
106.36,-78.26,-3.76,-79,153,-43,S
106.15,-78.26,-3.9,-86,179,-28,S
105.99,-78.25,-4.13,-76,146,-8,S
105.86,-78.24,-4.43,-68,73,25,S
105.82,-78.18,-4.83,-86,-31,71,S
105.92,-77.89,-5.86,-44,229,179,S
106.05,-77.52,-7.04,230,320,208,S
94.98,-78.85,-4.58,-151,-134,-237,S
94.2,-79.03,-4.01,240,-140,-277,S
92.32,-79.27,-2.67,2,-317,-303,S
91.44,-79.07,-2.16,-321,195,327,S
97.64,-79.37,-7.42,214,248,308,S
98.47,-79.14,-8.07,-282,76,-193,S
99.26,-78.91,-8.71,-154,-173,-122,S
102.0,-77.87,-10.94,-106,169,288,S
102.33,-79.31,-9.05,-41,-108,-94,S
102.29,-79.46,-8.8,-180,123,16,S
102.14,-80.09,-7.45,-30,-304,107,S
102.12,-80.26,-7.06,-123,-79,117,S
102.13,-80.44,-6.7,-308,171,170,S
102.2,-80.59,-6.37,141,-251,201,S
-177.63,-73.13,-12.22,27,-91,327,S
-166.43,-72.63,-12.67,-295,-62,-249,S
-156.53,-72.12,-13.11,-15,-16,-157,S
-135.94,-69.8,-14.55,155,146,154,S
-133.39,-69.41,-14.71,-214,-109,252,S
-130.88,-69.27,-14.81,-30,-304,259,S
-86.36,-73.18,-16.21,265,-299,136,S
-87.4,-73.28,-16.1,246,59,112,S
-88.89,-73.32,-15.98,-230,-177,-258,S
-91.59,-73.4,-15.71,-288,257,-164,S
-92.17,-73.55,-15.52,15,145,-9,S
-91.91,-74.14,-14.9,19,70,-6,S
-91.3,-74.4,-14.64,-314,-225,148,S
-94.67,-78.47,-9.64,307,9,-96,S
-93.63,-81.61,-6.42,1,316,291,S
-92.85,-82.15,-6.03,99,232,238,S
-92.42,-82.71,-5.59,9,-148,14,S
-92.48,-83.34,-5.01,-246,-218,-201,S
-146.88,-24.39,53.29,-29,165,220,S
-154.1,-15.89,54.01,-187,220,-35,S
-160.35,-8.23,51.37,-10,-20,287,S
-163.51,-4.64,49.59,0,58,-297,S
176.41,21.31,17.68,282,-64,-176,S
177.49,21.26,19.33,-281,-181,-178,S
178.88,20.75,19.7,-86,192,176,S
-179.4,19.87,20.0,177,1,-253,S
-177.59,18.6,20.33,70,-172,-107,S
-174.02,15.48,20.66,205,-225,125,S
175.83,15.81,13.12,-301,219,26,S
176.83,16.82,12.85,-170,179,-64,S
176.51,19.4,14.7,-12,31,241,S
176.17,20.14,15.46,249,208,49,S
175.93,20.8,16.11,303,-286,55,S
178.82,20.83,10.74,-259,295,-91,S
178.19,20.73,10.2,-198,-316,68,S
177.53,20.55,9.65,-59,326,-256,S
176.95,20.28,9.12,100,236,18,S
176.35,19.97,8.65,141,213,48,S
175.71,19.63,8.29,87,278,165,S
175.63,17.33,7.25,-123,71,-124,S
179.56,21.81,10.59,-307,-325,118,S
-179.98,20.75,10.68,-271,-29,-133,S
-179.65,19.79,10.9,-265,-258,-147,S
-179.36,19.05,11.33,135,-83,284,S
-178.06,17.2,12.22,309,-109,-128,S
-178.06,17.26,12.52,-124,141,44,S
167.92,15.46,6.3,-250,-245,-126,S
167.89,16.26,6.64,249,141,214,S
167.97,17.08,6.96,106,-128,5,S
167.98,17.92,7.29,-91,196,320,S
167.62,18.77,7.71,-215,-242,-61,S
166.9,19.61,8.22,-193,-93,-237,S
166.09,20.38,8.72,-81,-1,-260,S
165.29,22.19,9.78,319,40,164,S
164.57,22.48,9.42,95,85,-141,S
162.14,20.96,8.34,-262,-83,171,S
162.09,20.35,7.98,72,-208,72,S
162.03,19.3,7.4,312,-109,-99,S
167.1,22.61,12.5,101,80,-133,S
169.32,21.88,13.57,165,-165,-6,S
169.41,22.41,13.97,-192,-1,236,S
169.26,23.11,14.34,42,276,66,S
-84.37,-80.69,-7.27,-301,41,319,L
-84.38,-80.69,-7.28,-295,52,-326,L
-84.37,-80.68,-7.29,-293,41,-307,L
-84.39,-80.65,-7.31,-292,36,-309,L
-84.41,-80.65,-7.31,-302,55,325,L
-84.42,-80.64,-7.31,-314,64,320,L
-84.61,-80.7,-7.31,-303,37,325,L
-84.62,-80.7,-7.32,-295,42,-325,L
-84.61,-80.71,-7.34,-300,41,-308,L
-84.63,-80.72,-7.34,-319,44,292,L
-84.42,-80.74,-7.46,309,1,-166,L
-81.36,-75.62,-9.79,76,-271,-313,L
-84.97,-79.28,-4.68,75,286,251,L
-84.14,-78.09,-5.7,74,282,31,L
-82.02,-72.74,-12.61,-310,-135,-130,L
-82.19,-72.71,-16.25,-180,211,-5,L
-9.96,29.75,3.3,184,-240,-154,L
-9.5,30.82,0.29,-115,43,318,L
-8.36,32.55,-9.65,-81,-55,-251,L
-16.16,27.84,-13.68,205,-59,141,L
-17.07,28.46,-14.13,263,239,92,L
-18.17,29.06,-14.48,-102,-283,-89,L
-19.44,29.51,-14.75,167,-119,-237,L
-20.77,29.8,-14.96,194,317,-255,L
-23.21,30.84,-14.68,-263,106,-285,L
-16.1,30.1,-13.8,-132,169,201,L
-13.11,26.47,-11.44,-125,-203,149,L
-12.7,23.39,-9.2,-285,120,2913,L
-23.88,33.59,-7.92,-44,99,-237,L
-23.9,33.4,-7.54,-102,-60,15,L
-24.61,32.89,-7.3,-248,-66,86,L
-25.61,32.64,-7.72,233,41,149,L
-25.52,32.44,-8.1,-294,256,289,L
-24.88,32.27,-8.51,-275,-208,-82,L
-11.93,24.67,-10.56,-150,319,-304,L
-12.1,24.85,-10.91,-298,296,-208,L
-12.52,24.98,-11.39,178,-229,-30,L
-15.8,27.18,-13.55,-40,287,35,L
-16.82,27.63,-13.74,122,-142,-84,L
-13.05,30.7,-13.72,78,135,226,L
-12.51,30.46,-14.04,102,110,-20,L
-11.9,30.08,-14.09,-243,232,312,L
-11.55,30.04,-14.07,-170,260,-119,L
-11.68,30.39,-13.9,-219,256,69,L
-11.98,30.47,-13.62,-254,253,189,L
-12.07,30.0,-13.22,54,298,-88,L
-24.74,24.2,-10.82,-24,46,205,L
-25.32,24.45,-10.53,-22,-4,-107,L
-25.67,24.68,-10.26,75,-187,306,L
-25.87,24.78,-10.03,50,-159,-233,L
-25.72,24.92,-8.61,-210,296,190,L
-13.16,23.79,-8.45,-69,211,264,L
-13.01,23.87,-8.56,-215,158,-312,L
-12.95,24.01,-8.77,262,148,227,L
-12.94,24.21,-9.05,185,117,-102,L
-13.05,24.4,-9.37,138,141,68,L
-13.28,24.58,-9.7,-10,284,250,L
-14.08,24.97,-10.38,-250,-124,138,L
-11.78,31.24,-7.22,245,-4,100,L
-0.9,33.98,-6.97,67,209,-240,L
0.68,34.28,-7.02,-180,-215,172,L
1.63,33.97,-7.24,-232,194,-54,L
-28.85,24.08,-15.69,186,-70,145,L
-30.59,24.83,-15.14,-251,115,245,L
-32.38,25.52,-14.17,302,286,-313,L
-34.05,26.28,-12.86,-15,167,-285,L
-35.35,27.06,-11.47,221,-162,-151,L
-27.72,27.4,-13.18,-187,-5,48,L
-34.27,29.6,-5.32,87,-295,-186,L
-33.65,29.57,-8.11,100,240,232,L
-33.11,29.7,-8.96,160,-194,-163,L
-32.49,29.89,-9.9,291,-34,168,L
-28.53,29.92,-13.83,123,321,-23,L
-28.24,30.5,-14.57,-39,309,170,L
-28.53,30.75,-15.24,-306,75,286,L
-28.27,30.68,-15.68,323,-65,169,L
-27.51,30.27,-15.96,-116,-25,23,L
-26.56,29.92,-16.12,-321,-63,29,L
-26.0,30.0,-16.05,-35,250,28,L
-26.08,30.35,-15.78,-135,-272,-278,L
-32.51,31.68,-11.26,200,-261,228,L
-30.7,30.79,-4.31,216,-231,40,L
-15.78,29.07,-7.35,96,167,212,L
-15.95,28.31,-6.93,141,-167,-29,L
-15.96,27.94,-6.94,65,-243,161,L
-16.01,27.89,-7.04,95,323,97,L
-16.1,28.08,-7.22,181,257,-287,L
-16.18,28.33,-7.49,214,184,306,L
-27.22,29.03,-3.84,215,-165,216,L
-27.41,29.1,-4.0,313,-20,-321,L
-27.57,29.15,-4.36,-205,151,327,L
-27.63,29.27,-4.86,-30,-270,311,L
-27.46,29.48,-5.41,179,-74,-141,L
-27.0,29.69,-5.98,-263,72,204,L
-26.31,29.8,-6.55,-217,230,9,L
-25.54,29.9,-7.11,-313,-319,-221,L
-24.88,30.16,-7.69,290,299,46,L
-17.52,30.01,-8.5,117,-63,199,L
-17.78,30.28,-8.9,124,35,-39,L
-18.31,30.55,-9.34,106,176,143,L
-18.94,30.74,-9.8,-1,-184,62,L
-19.54,30.9,-10.23,-144,182,-118,L
-20.14,31.12,-10.56,-272,-102,-248,L
-20.82,31.46,-10.79,-265,252,157,L
-21.63,31.84,-10.87,-65,-136,259,L
-22.49,32.17,-10.76,116,-48,-197,L
-22.76,32.28,-11.38,205,-280,318,L
-22.83,32.92,-11.81,54,150,-20,L
-22.84,33.38,-12.14,-273,37,94,L
-67.16,40.27,24.32,-230,317,87,R
-67.97,41.34,23.62,293,-252,294,R
-68.83,42.44,22.77,323,-317,-197,R
-69.78,43.55,21.81,-86,98,-38,R
-70.81,44.55,20.86,261,-170,89,R
-71.89,45.46,20.05,-59,-322,261,R
-73.0,46.32,19.34,209,289,-138,R
-74.09,47.17,18.67,-216,309,142,R
-75.03,48.01,18.04,-8,295,-177,R
-60.43,36.64,32.51,-208,-203,100,R
-59.24,35.26,33.22,-211,-323,170,R
-56.61,31.97,34.78,-48,-211,-249,R
-55.9,30.07,35.58,76,255,-72,R
-79.59,55.43,14.89,238,-115,131,R
-80.39,56.61,13.99,212,-278,214,R
-80.25,56.92,13.83,318,292,202,R
-79.72,56.79,14.09,-312,-45,265,R
-63.07,31.82,32.19,-183,-323,-205,R
-63.17,32.22,32.2,314,-273,193,R
-63.29,32.71,32.15,80,-201,-160,R
-63.51,33.28,31.98,-162,-113,69,R
-77.3,53.02,16.8,-324,-65,140,R
-75.54,51.15,18.56,28,-169,46,R
-74.57,49.9,19.55,-140,-4,96,R
-73.6,48.48,20.59,-294,292,252,R
-72.59,46.94,21.69,208,54,-250,R
-66.43,39.35,28.83,-68,52,-12,R
-67.24,40.65,27.82,-66,135,58,R
-68.08,42.05,26.75,2,156,86,R
-71.73,48.13,22.17,-151,326,180,R
-72.65,49.56,21.04,267,-54,-237,R
-68.51,44.96,26.33,200,170,-116,R
-64.21,38.84,31.71,-207,50,-43,R
-63.19,37.38,32.81,220,199,-24,R
-61.08,34.44,34.65,127,154,-145,R
-50.57,22.99,49.69,-222,-157,257,R
-45.48,20.14,52.75,90,265,-197,R
44.68,-44.27,45.72,29,26,-96,R
46.55,-46.04,43.94,-287,-178,273,R
45.14,-43.91,45.83,-55,-229,219,R
44.67,-43.49,46.26,44,-315,18,R
44.22,-43.08,46.68,119,317,-168,R
43.82,-42.72,47.04,179,-322,318,R
43.49,-42.41,47.34,250,-290,192,R
43.25,-42.19,47.56,313,-258,142,R
43.09,-42.04,47.69,-274,-258,172,R
43.0,-41.97,47.75,-205,-269,264,R
42.97,-41.97,47.75,-123,-261,-233,R
45.33,-45.68,44.15,21,-141,-217,R
45.19,-45.64,44.15,17,42,124,R
44.94,-45.48,44.27,-4,-318,-186,R
42.8,-44.07,45.24,254,-241,141,R
41.1,-42.96,45.83,24,-292,-213,R
92.26,41.82,20.29,-268,200,232,L
94.32,42.0,22.57,-106,314,-32,L
96.86,41.66,25.35,324,-256,-297,L
99.84,40.73,28.61,-303,308,-152,L
103.41,39.15,32.27,-29,87,-326,L
107.69,36.98,36.34,-270,-111,118,L
112.71,34.26,40.86,249,-314,-164,L
118.52,30.99,45.84,222,16,113,L
-58.17,-53.15,-32.63,-192,-254,-4,L
-86.84,-64.69,-16.57,-323,234,-20,L
-86.75,-65.42,-16.26,-300,209,-10,L
-97.03,-68.54,-19.63,8,61,8,L
-99.09,-69.69,-18.85,-226,69,307,L
-101.53,-70.91,-17.94,297,57,-2,L
-103.39,-72.18,-17.0,271,97,-163,L
-104.04,-73.36,-16.1,113,188,-313,L
74.17,-85.61,-0.16,-239,158,110,L
72.78,-85.43,-0.19,-140,-123,-205,L
71.79,-85.43,-0.03,61,262,305,L
70.66,-85.62,0.28,-225,-36,155,L
72.77,-86.48,0.08,59,-34,-83,L
-91.21,-76.61,-13.35,228,-113,232,L
-81.11,-79.37,-10.55,-200,-169,-299,L
-80.93,-79.1,-10.79,-219,270,-243,L
-80.75,-78.8,-11.06,-281,47,-165,L
-79.55,-77.35,-12.33,-127,1,298,L
-80.19,-77.03,-9.56,60,-318,-239,L
-80.51,-77.34,-9.17,-312,-290,-199,L
-81.51,-78.51,-7.97,283,-239,-281,L
-145.18,-45.06,43.41,-9,62,-309,L
-153.77,-40.85,46.77,126,-88,10,L
-163.59,-36.75,49.62,79,276,25,L
174.83,-29.87,52.32,44,-19,191,L
142.14,-16.36,50.9,221,-270,-296,L
91.82,26.44,7.26,-131,276,-260,L
91.47,25.76,6.87,114,317,-141,L
91.17,24.7,6.49,104,0,-288,L
90.82,23.49,6.26,110,-11,-273,L
90.37,22.46,6.16,-24,-132,-181,L
89.97,21.8,6.09,-285,22,-128,L
89.49,21.41,5.8,74,26,18,L
89.23,21.19,5.61,-138,-196,-323,L
93.43,30.53,5.23,-43,-36,-187,L
93.83,30.97,5.44,163,-188,130,L
94.4,30.8,5.85,159,11,-54,L
94.72,30.5,5.97,-128,153,-88,L
89.41,25.09,5.61,119,-48,295,L
88.89,23.73,6.05,175,-324,-54,L
88.4,22.38,6.64,254,-118,108,L
87.99,21.18,7.25,202,101,175,L
87.64,20.09,7.85,278,-131,-154,L
87.2,19.06,8.47,-155,-168,176,L
86.58,18.01,9.11,29,-248,157,L
89.92,25.12,8.61,209,309,319,L
90.57,24.34,8.99,-316,-100,-247,L
92.24,21.23,9.75,4,-68,-9,L
92.47,20.6,10.03,-129,-301,252,L
92.56,20.31,10.15,305,230,-194,L
92.57,20.22,10.04,-179,144,-83,L
92.52,20.38,9.79,-214,197,14,L
79.32,10.79,5.49,-25,117,310,L
76.82,10.57,6.09,-142,-63,-297,L
63.61,13.02,7.09,-74,-99,169,L
60.38,13.85,6.66,-150,-203,56,L
57.17,14.62,6.23,-44,124,-71,L
54.14,15.49,5.87,5,-316,290,L
30.94,25.3,-5.78,-137,-96,218,L
29.9,25.08,-5.96,-65,-146,271,L
28.66,24.73,-6.1,-78,-109,240,L
27.29,24.27,-6.2,-289,66,300,L
25.93,23.88,-6.13,119,274,-269,L
24.76,23.66,-5.78,71,-254,-299,L
15.83,24.04,-2.6,-241,154,142,L
15.67,23.97,-2.57,-42,-274,35,L
15.76,24.11,-2.22,-10,284,134,L
16.05,24.25,-1.75,220,-23,194,L
16.45,24.31,-1.3,-167,-291,-127,L
15.22,21.96,3.07,-241,114,-45,L
15.96,21.5,3.08,-78,271,-292,L
16.61,21.41,2.68,-138,-50,-58,L
17.35,21.38,2.17,-125,268,221,L
18.11,21.4,1.65,-1,-190,-249,L
18.86,21.47,1.07,174,-20,-95,L
19.58,21.58,0.49,-299,174,169,L
19.38,22.07,-8.42,-268,-98,-319,L
18.63,21.62,-9.05,249,59,-2,L
17.3,20.72,-9.9,108,305,-296,L
16.71,20.26,-10.15,-36,-86,-94,L
16.08,19.88,-10.02,-195,94,73,L
15.43,19.61,-9.51,-278,92,74,L
-22.92,28.56,-13.33,-27,216,6,R
-23.49,28.39,-13.49,-78,-292,146,R
-23.86,28.26,-13.54,47,-246,208,R
-24.4,28.25,-13.48,283,-65,219,R
-25.29,28.29,-13.23,321,298,-213,R
-26.43,28.46,-12.65,159,-22,35,R
-27.49,28.79,-11.87,212,-117,-85,R
-28.24,29.09,-11.24,-124,-216,-283,R
-28.67,29.06,-10.84,239,137,246,R
-20.77,36.01,-5.25,123,-1,-172,R
-20.05,35.76,-4.61,164,160,-77,R
-17.55,35.18,-0.84,152,152,-265,R
-14.39,33.66,0.37,-62,-78,206,R
-10.61,32.9,3.56,-248,-271,-225,R
7.62,-19.32,68.88,-82,-125,27,R
8.86,-22.19,65.69,-52,-183,-326,R
16.04,-34.35,52.47,-75,-297,105,R
16.64,-36.75,49.55,298,-234,18,R
17.66,-40.35,44.74,299,58,-24,R
70.29,-78.37,2.77,-155,-267,-115,R
70.33,-78.5,3.09,122,-218,3,R
72.24,-79.78,3.18,-9,-325,-121,R
73.87,-80.67,2.9,-278,169,181,R
76.5,-81.82,1.97,15,-219,-156,R
-66.48,-68.73,16.04,-16,234,-157,R
-68.06,-69.14,15.99,-207,108,-155,R
5.3,-63.14,24.55,250,-192,-196,R
9.0,-62.06,25.81,82,243,-89,R
-0.67,22.16,5.0,-1,-21,-168,R
-2.13,21.47,2.64,4,10,210,R
-30.58,21.48,-5.77,-264,-100,300,R
-37.18,24.74,-10.2,178,-264,282,R
-36.18,20.79,-4.11,-96,-183,-163,R
-32.78,19.71,-15.75,-33,-88,18,R
-32.48,19.99,-16.34,115,-106,-136,R
-32.48,20.39,-16.84,289,-156,-249,R
-32.55,20.81,-17.29,-143,-273,285,R
-32.52,21.15,-17.83,131,316,171,R
-32.42,21.4,-18.41,-237,-169,98,R
-32.29,21.7,-18.8,17,-52,31,R
-32.13,22.09,-18.98,204,-149,99,R
-31.82,22.37,-19.07,296,-252,-265,R
-30.26,24.08,-14.07,181,-159,106,R
-30.42,24.02,-13.56,60,-187,-318,R
-30.77,24.08,-12.68,-196,259,-80,R
-23.94,21.72,-4.51,84,30,-316,R
-22.93,22.51,-2.82,-191,-1,10,R
-30.53,25.16,-7.88,-159,231,263,R
-30.18,25.29,-7.52,-190,96,206,R
-29.68,25.28,-7.13,-160,-316,116,R
-29.88,25.32,-7.12,-126,205,125,R
-30.24,25.39,-7.56,-143,-68,-271,R
-28.28,28.71,-9.86,-70,175,-133,R
-28.47,28.73,-9.55,-128,-317,-276,R
-36.55,31.8,-12.62,197,-292,-131,R
-35.54,32.37,-13.4,-32,113,163,R
-35.45,32.22,-13.32,-320,-290,37,R
-35.65,32.17,-13.07,311,321,139,R
-36.02,32.38,-12.69,199,-196,184,R
-32.75,24.45,-6.69,-142,101,62,R
-32.57,23.91,-5.6,169,117,262,R
-30.7,25.12,-6.24,96,280,127,R
-30.7,24.8,-6.11,86,11,-291,R
-30.75,24.36,-6.11,-157,-18,-309,R
-30.74,24.07,-6.2,166,-144,264,R
-30.79,24.1,-6.42,-54,325,259,R
-31.01,24.37,-6.81,-49,213,5,R
-31.32,24.64,-7.25,12,289,69,R
-31.55,24.74,-7.73,-39,-73,136,R
-35.36,24.14,-4.29,24,2,-207,R
-35.31,24.81,-5.06,297,-237,-25,R
-35.32,25.42,-5.93,-52,303,96,R
-35.3,25.98,-6.74,201,294,-292,R
-35.09,26.42,-7.41,242,-210,-250,R
-34.66,26.74,-8.01,89,16,-128,R
-34.18,27.11,-8.57,-13,192,-251,R
-33.84,27.78,-9.05,326,93,276,R
-33.74,28.54,-9.44,315,-174,-163,R
-33.69,27.95,-9.2,120,-300,-163,R
-33.92,27.75,-9.08,228,-199,-197,R
-34.05,27.54,-8.77,246,-91,-171,R
-34.17,27.3,-8.34,245,0,293,R
-34.4,27.07,-7.85,-275,-83,-320,R
-34.79,26.82,-7.27,-180,-264,319,R
-35.23,26.48,-6.6,-287,227,-183,R
-35.63,26.04,-5.89,132,138,130,R
-35.96,25.54,-5.17,-161,148,-101,R
-37.2,27.82,-8.19,-286,-121,-283,R
-36.77,27.83,-8.26,-253,314,219,R
-36.38,27.86,-8.26,-156,-71,234,R
-36.14,27.81,-8.18,-228,246,-179,R
-36.02,27.73,-8.13,142,51,-43,R
-35.91,27.87,-8.22,49,-251,-227,R
-35.73,28.13,-8.48,272,-43,36,R
-35.61,28.26,-8.9,-195,316,56,R
-35.72,28.3,-9.47,-197,290,-123,R
-41.44,22.72,-3.85,226,133,-203,R
-41.2,22.52,-3.52,37,182,-13,R
-40.98,22.36,-3.48,-142,-232,183,R
-40.83,22.38,-3.68,-193,-58,216,R
-40.74,22.58,-4.09,-49,52,117,R
-40.65,22.86,-4.67,207,181,80,R
-40.52,23.16,-5.36,-163,322,121,R
-40.27,23.45,-6.11,90,-228,238,R
-39.93,23.71,-6.9,319,-86,-237,R
-33.18,24.1,-8.02,-138,242,94,R
-33.57,24.09,-8.39,-160,35,325,R
-33.76,24.05,-8.66,-319,-279,-248,R
-33.88,24.16,-8.84,322,-222,144,R
-34.06,24.39,-8.96,-136,286,-221,R
-34.44,24.51,-9.08,154,202,152,R
-35.05,24.37,-9.11,-312,284,26,R
-35.8,24.03,-9.0,319,-154,151,R
-36.61,23.7,-8.74,245,40,-242,R
-37.18,27.63,-10.72,218,122,228,R
-37.0,27.82,-11.04,198,196,-291,R
-36.57,27.86,-11.21,-33,320,38,R
-36.12,28.03,-11.26,-90,290,224,R
-35.9,28.44,-11.27,297,58,266,R
-35.88,28.78,-11.24,114,-134,-226,R
-35.82,28.72,-11.2,-262,-57,-199,R
-35.57,28.44,-10.98,255,38,-208,R
-39.44,25.44,-5.51,-34,89,279,R
-39.12,25.07,-5.04,317,106,182,R
-38.19,24.46,-4.2,234,-269,-21,R
-38.12,24.49,-4.16,150,-258,-13,R
-33.44,26.99,-8.71,-184,-64,-57,R
-33.36,26.63,-8.3,221,52,62,R
-33.13,26.28,-7.94,-117,168,-57,R
-32.8,26.15,-7.66,231,94,265,R
-32.45,26.26,-7.48,146,-138,-278,R
-32.29,26.44,-7.42,292,318,208,R
-32.34,26.62,-7.44,-189,228,-107,R
-36.24,26.39,-1.05,115,-122,-180,R
-36.05,26.77,-1.71,225,-112,122,R
-36.03,27.22,-2.44,-246,-101,-251,R
-36.05,27.76,-3.2,55,-129,49,R
-35.94,28.22,-3.95,327,-109,-215,R
-35.57,28.48,-4.71,-216,56,146,R
-34.97,28.58,-5.43,-161,237,-223,R
-34.27,26.73,-8.46,70,-299,37,R
-35.26,26.6,-8.55,-31,74,295,R
-36.08,26.65,-8.5,1,266,291,R
-36.73,26.77,-8.36,228,235,95,R
-53.12,22.41,33.51,326,294,-319,L
-52.85,22.01,33.65,-41,-24,-179,L
-52.67,21.94,33.77,100,249,-274,L
-52.76,22.2,33.73,247,-110,76,L
-53.16,22.79,33.52,-98,221,242,L
-53.86,23.7,33.12,-261,-81,179,L
-54.78,24.92,32.6,-257,156,-74,L
-55.84,26.41,31.98,-187,269,225,L
-57.0,28.08,31.22,-72,284,-128,L
-66.29,46.94,22.33,-49,200,241,L
-65.04,44.88,23.71,-267,-227,123,L
-63.49,42.4,25.44,-246,177,177,L
-61.71,39.61,27.29,195,49,-99,L
-59.86,36.7,28.95,108,-59,-245,L
-58.1,33.85,30.23,307,-178,283,L
-56.48,31.14,31.2,67,-313,101,L
-55.07,28.6,32.01,-77,105,-11,L
27.36,-27.1,62.03,-295,-123,201,L
27.71,-27.3,61.94,114,73,-240,L
27.6,-27.09,62.22,-233,210,29,L
27.03,-26.49,62.87,72,256,-268,L
26.0,-25.47,63.9,-298,108,143,L
24.58,-24.06,65.2,-106,-164,219,L
22.83,-22.3,66.62,83,188,303,L
20.81,-20.27,67.94,227,2,-41,L
18.61,-18.09,68.92,280,37,-7,L
-22.9,19.53,47.72,283,-185,-163,L
-24.21,20.69,44.42,-119,193,-296,L
-24.72,21.06,42.94,292,-99,-166,L
-25.52,21.73,41.07,60,-196,-34,L
-26.6,22.67,38.94,-94,231,18,L
8.87,67.88,21.38,137,-219,153,L
13.87,67.79,21.4,83,73,-2,L
12.57,67.99,21.08,-42,-95,3,L
5.48,68.37,20.54,-259,60,45,L
-2.75,68.9,19.79,66,218,63,L
-7.51,72.08,14.82,-27,-205,-199,L
-43.57,35.19,6.98,251,183,267,L
-43.85,34.73,9.08,25,-170,-280,L
-44.52,34.42,9.99,109,-49,6,L
-45.07,34.76,8.14,-222,-78,47,L
-47.16,37.83,0.68,94,-157,-47,L
-47.77,39.15,-1.84,36,-273,-63,L
76.3,63.71,25.05,-325,281,29,L
72.98,64.05,24.39,-188,-172,178,L
70.6,65.16,22.8,325,-3,123,L
68.47,66.73,20.66,-300,-271,69,L
-43.08,39.92,-23.98,-231,108,-101,L
-40.73,40.11,-25.61,-270,292,-225,L
-38.72,40.51,-26.91,61,22,-245,L
-36.29,40.99,-28.25,-116,-63,69,L
-22.77,45.07,-28.81,-303,83,-273,L
38.66,73.48,1.83,-25,87,-5,L
